onset	duration	trial_type	timestamp_lsl	marker	response_accuracy	nback_level	key_press	matched	outcome	istutorial	dropped_samples	marker_stream
15.034238	0.004000	dropped_samples	4127.974289	Dropped 1 samples	n/a	n/a	n/a	n/a	n/a	n/a	1	UoHDataOffsetStream
15.537169	0.004000	dropped_samples	4128.477220	Dropped 1 samples	n/a	n/a	n/a	n/a	n/a	n/a	1	UoHDataOffsetStream
16.567446	0.012000	dropped_samples	4129.507498	Dropped 3 samples	n/a	n/a	n/a	n/a	n/a	n/a	3	UoHDataOffsetStream
21.606476	0.012000	dropped_samples	4134.546528	Dropped 3 samples	n/a	n/a	n/a	n/a	n/a	n/a	3	UoHDataOffsetStream
23.336442	0.004000	dropped_samples	4136.276493	Dropped 1 samples	n/a	n/a	n/a	n/a	n/a	n/a	1	UoHDataOffsetStream
23.696324	0.004000	dropped_samples	4136.636376	Dropped 1 samples	n/a	n/a	n/a	n/a	n/a	n/a	1	UoHDataOffsetStream
26.093835	0.004000	dropped_samples	4139.033886	Dropped 1 samples	n/a	n/a	n/a	n/a	n/a	n/a	1	UoHDataOffsetStream
28.281468	0.004000	dropped_samples	4141.221520	Dropped 1 samples	n/a	n/a	n/a	n/a	n/a	n/a	1	UoHDataOffsetStream
28.710971	0.004000	dropped_samples	4141.651023	Dropped 1 samples	n/a	n/a	n/a	n/a	n/a	n/a	1	UoHDataOffsetStream
29.770556	0.004000	dropped_samples	4142.710608	Dropped 1 samples	n/a	n/a	n/a	n/a	n/a	n/a	1	UoHDataOffsetStream
30.322334	0.004000	dropped_samples	4143.262385	Dropped 1 samples	n/a	n/a	n/a	n/a	n/a	n/a	1	UoHDataOffsetStream
31.040102	0.004000	dropped_samples	4143.980153	Dropped 1 samples	n/a	n/a	n/a	n/a	n/a	n/a	1	UoHDataOffsetStream
33.945423	0.004000	dropped_samples	4146.885475	Dropped 1 samples	n/a	n/a	n/a	n/a	n/a	n/a	1	UoHDataOffsetStream
40.926064	0.000000	started_tutorial_n_back	4153.866115	Started tutorial n-back	n/a	n/a	n/a	n/a	n/a	true	n/a	n-backMarkers
50.791083	0.004000	dropped_samples	4163.731135	Dropped 1 samples	n/a	n/a	n/a	n/a	n/a	n/a	1	UoHDataOffsetStream
64.135862	0.008000	dropped_samples	4177.075913	Dropped 2 samples	n/a	n/a	n/a	n/a	n/a	n/a	2	UoHDataOffsetStream
69.248165	0.012000	dropped_samples	4182.188217	Dropped 3 samples	n/a	n/a	n/a	n/a	n/a	n/a	3	UoHDataOffsetStream
70.376108	0.012000	dropped_samples	4183.316159	Dropped 3 samples	n/a	n/a	n/a	n/a	n/a	n/a	3	UoHDataOffsetStream
71.479655	0.008000	dropped_samples	4184.419707	Dropped 2 samples	n/a	n/a	n/a	n/a	n/a	n/a	2	UoHDataOffsetStream
72.802849	0.004000	dropped_samples	4185.742901	Dropped 1 samples	n/a	n/a	n/a	n/a	n/a	n/a	1	UoHDataOffsetStream
73.004677	0.004000	dropped_samples	4185.944728	Dropped 1 samples	n/a	n/a	n/a	n/a	n/a	n/a	1	UoHDataOffsetStream
73.042155	0.012000	dropped_samples	4185.982206	Dropped 3 samples	n/a	n/a	n/a	n/a	n/a	n/a	3	UoHDataOffsetStream
73.447383	0.012000	dropped_samples	4186.387435	Dropped 3 samples	n/a	n/a	n/a	n/a	n/a	n/a	3	UoHDataOffsetStream
76.211065	0.008000	dropped_samples	4189.151116	Dropped 2 samples	n/a	n/a	n/a	n/a	n/a	n/a	2	UoHDataOffsetStream
76.401535	0.004000	dropped_samples	4189.341586	Dropped 1 samples	n/a	n/a	n/a	n/a	n/a	n/a	1	UoHDataOffsetStream
78.032346	0.004000	dropped_samples	4190.972398	Dropped 1 samples	n/a	n/a	n/a	n/a	n/a	n/a	1	UoHDataOffsetStream
78.081165	0.004000	dropped_samples	4191.021217	Dropped 1 samples	n/a	n/a	n/a	n/a	n/a	n/a	1	UoHDataOffsetStream
79.760996	0.004000	dropped_samples	4192.701047	Dropped 1 samples	n/a	n/a	n/a	n/a	n/a	n/a	1	UoHDataOffsetStream
81.103661	0.008000	dropped_samples	4194.043712	Dropped 2 samples	n/a	n/a	n/a	n/a	n/a	n/a	2	UoHDataOffsetStream
84.726681	0.004000	dropped_samples	4197.666732	Dropped 1 samples	n/a	n/a	n/a	n/a	n/a	n/a	1	UoHDataOffsetStream
88.808735	0.004000	dropped_samples	4201.748787	Dropped 1 samples	n/a	n/a	n/a	n/a	n/a	n/a	1	UoHDataOffsetStream
89.746261	0.008000	dropped_samples	4202.686312	Dropped 2 samples	n/a	n/a	n/a	n/a	n/a	n/a	2	UoHDataOffsetStream
94.350722	0.012000	dropped_samples	4207.290774	Dropped 3 samples	n/a	n/a	n/a	n/a	n/a	n/a	3	UoHDataOffsetStream
94.570451	0.008000	dropped_samples	4207.510502	Dropped 2 samples	n/a	n/a	n/a	n/a	n/a	n/a	2	UoHDataOffsetStream
98.278164	0.004000	dropped_samples	4211.218216	Dropped 1 samples	n/a	n/a	n/a	n/a	n/a	n/a	1	UoHDataOffsetStream
104.384918	0.004000	dropped_samples	4217.324969	Dropped 1 samples	n/a	n/a	n/a	n/a	n/a	n/a	1	UoHDataOffsetStream
106.787301	0.004000	dropped_samples	4219.727352	Dropped 1 samples	n/a	n/a	n/a	n/a	n/a	n/a	1	UoHDataOffsetStream
107.924879	0.000000	1-back	4220.864930	Steps:1 KeyPress:False Matched:False	1	1	false	false	Correct	true	n/a	n-backMarkers
109.625705	0.000000	1-back	4222.565756	Steps:1 KeyPress:False Matched:False	1	1	false	false	Correct	true	n/a	n-backMarkers
111.326757	0.000000	1-back	4224.266809	Steps:1 KeyPress:False Matched:False	1	1	false	false	Correct	true	n/a	n-backMarkers
113.027133	0.000000	1-back	4225.967184	Steps:1 KeyPress:True Matched:False	0	1	true	false	Wrong	true	n/a	n-backMarkers
114.728706	0.000000	1-back	4227.668758	Steps:1 KeyPress:False Matched:False	1	1	false	false	Correct	true	n/a	n-backMarkers
116.428809	0.000000	1-back	4229.368860	Steps:1 KeyPress:True Matched:False	0	1	true	false	Wrong	true	n/a	n-backMarkers
118.129604	0.000000	1-back	4231.069655	Steps:1 KeyPress:False Matched:True	0	1	false	true	Wrong	true	n/a	n-backMarkers
119.829993	0.000000	1-back	4232.770044	Steps:1 KeyPress:False Matched:True	0	1	false	true	Wrong	true	n/a	n-backMarkers
121.531678	0.000000	1-back	4234.471729	Steps:1 KeyPress:False Matched:False	1	1	false	false	Correct	true	n/a	n-backMarkers
122.290215	0.004000	dropped_samples	4235.230267	Dropped 1 samples	n/a	n/a	n/a	n/a	n/a	n/a	1	UoHDataOffsetStream
122.695531	0.004000	dropped_samples	4235.635583	Dropped 1 samples	n/a	n/a	n/a	n/a	n/a	n/a	1	UoHDataOffsetStream
123.231775	0.000000	1-back	4236.171826	Steps:1 KeyPress:False Matched:False	1	1	false	false	Correct	true	n/a	n-backMarkers
123.755072	0.004000	dropped_samples	4236.695124	Dropped 1 samples	n/a	n/a	n/a	n/a	n/a	n/a	1	UoHDataOffsetStream
124.932940	0.000000	1-back	4237.872992	Steps:1 KeyPress:False Matched:True	0	1	false	true	Wrong	true	n/a	n-backMarkers
126.634627	0.000000	1-back	4239.574679	Steps:1 KeyPress:True Matched:False	0	1	true	false	Wrong	true	n/a	n-backMarkers
127.402711	0.012000	dropped_samples	4240.342762	Dropped 3 samples	n/a	n/a	n/a	n/a	n/a	n/a	3	UoHDataOffsetStream
128.336020	0.000000	1-back	4241.276072	Steps:1 KeyPress:False Matched:False	1	1	false	false	Correct	true	n/a	n-backMarkers
130.035999	0.000000	1-back	4242.976051	Steps:1 KeyPress:True Matched:False	0	1	true	false	Wrong	true	n/a	n-backMarkers
131.439978	0.012000	dropped_samples	4244.380030	Dropped 3 samples	n/a	n/a	n/a	n/a	n/a	n/a	3	UoHDataOffsetStream
131.479706	0.008000	dropped_samples	4244.419758	Dropped 2 samples	n/a	n/a	n/a	n/a	n/a	n/a	2	UoHDataOffsetStream
131.736566	0.000000	1-back	4244.676617	Steps:1 KeyPress:False Matched:False	1	1	false	false	Correct	true	n/a	n-backMarkers
132.394068	0.008000	dropped_samples	4245.334120	Dropped 2 samples	n/a	n/a	n/a	n/a	n/a	n/a	2	UoHDataOffsetStream
133.436709	0.000000	1-back	4246.376760	Steps:1 KeyPress:True Matched:False	0	1	true	false	Wrong	true	n/a	n-backMarkers
135.139354	0.000000	1-back	4248.079405	Steps:1 KeyPress:False Matched:True	0	1	false	true	Wrong	true	n/a	n-backMarkers
136.839745	0.000000	1-back	4249.779797	Steps:1 KeyPress:False Matched:False	1	1	false	false	Correct	true	n/a	n-backMarkers
138.541589	0.000000	1-back	4251.481641	Steps:1 KeyPress:True Matched:False	0	1	true	false	Wrong	true	n/a	n-backMarkers
140.242593	0.000000	1-back	4253.182644	Steps:1 KeyPress:False Matched:True	0	1	false	true	Wrong	true	n/a	n-backMarkers
141.943655	0.000000	1-back	4254.883706	Steps:1 KeyPress:False Matched:False	1	1	false	false	Correct	true	n/a	n-backMarkers
143.720932	0.016000	dropped_samples	4256.660984	Dropped 4 samples	n/a	n/a	n/a	n/a	n/a	n/a	4	UoHDataOffsetStream
144.677812	0.008000	dropped_samples	4257.617864	Dropped 2 samples	n/a	n/a	n/a	n/a	n/a	n/a	2	UoHDataOffsetStream
144.731666	0.036000	dropped_samples	4257.671717	Dropped 9 samples	n/a	n/a	n/a	n/a	n/a	n/a	9	UoHDataOffsetStream
150.635613	0.000000	2-back	4263.575664	Steps:2 KeyPress:False Matched:False	1	2	false	false	Correct	true	n/a	n-backMarkers
150.839177	0.008000	dropped_samples	4263.779229	Dropped 2 samples	n/a	n/a	n/a	n/a	n/a	n/a	2	UoHDataOffsetStream
150.874306	0.008000	dropped_samples	4263.814358	Dropped 2 samples	n/a	n/a	n/a	n/a	n/a	n/a	2	UoHDataOffsetStream
152.336146	0.000000	2-back	4265.276197	Steps:2 KeyPress:False Matched:False	1	2	false	false	Correct	true	n/a	n-backMarkers
152.890894	0.004000	dropped_samples	4265.830946	Dropped 1 samples	n/a	n/a	n/a	n/a	n/a	n/a	1	UoHDataOffsetStream
154.037575	0.000000	2-back	4266.977626	Steps:2 KeyPress:False Matched:False	1	2	false	false	Correct	true	n/a	n-backMarkers
155.737732	0.000000	2-back	4268.677783	Steps:2 KeyPress:False Matched:False	1	2	false	false	Correct	true	n/a	n-backMarkers
157.041311	0.004000	dropped_samples	4269.981362	Dropped 1 samples	n/a	n/a	n/a	n/a	n/a	n/a	1	UoHDataOffsetStream
157.439512	0.000000	2-back	4270.379564	Steps:2 KeyPress:True Matched:False	0	2	true	false	Wrong	true	n/a	n-backMarkers
159.140608	0.000000	2-back	4272.080660	Steps:2 KeyPress:False Matched:True	0	2	false	true	Wrong	true	n/a	n-backMarkers
160.841340	0.000000	2-back	4273.781391	Steps:2 KeyPress:True Matched:False	0	2	true	false	Wrong	true	n/a	n-backMarkers
162.542623	0.000000	2-back	4275.482675	Steps:2 KeyPress:False Matched:True	0	2	false	true	Wrong	true	n/a	n-backMarkers
164.242890	0.000000	2-back	4277.182942	Steps:2 KeyPress:False Matched:False	1	2	false	false	Correct	true	n/a	n-backMarkers
165.375171	0.004000	dropped_samples	4278.315222	Dropped 1 samples	n/a	n/a	n/a	n/a	n/a	n/a	1	UoHDataOffsetStream
165.558535	0.008000	dropped_samples	4278.498587	Dropped 2 samples	n/a	n/a	n/a	n/a	n/a	n/a	2	UoHDataOffsetStream
165.944463	0.000000	2-back	4278.884514	Steps:2 KeyPress:False Matched:True	0	2	false	true	Wrong	true	n/a	n-backMarkers
166.552434	0.004000	dropped_samples	4279.492486	Dropped 1 samples	n/a	n/a	n/a	n/a	n/a	n/a	1	UoHDataOffsetStream
166.714163	0.008000	dropped_samples	4279.654214	Dropped 2 samples	n/a	n/a	n/a	n/a	n/a	n/a	2	UoHDataOffsetStream
167.645680	0.000000	2-back	4280.585732	Steps:2 KeyPress:False Matched:False	1	2	false	false	Correct	true	n/a	n-backMarkers
167.744384	0.024000	dropped_samples	4280.684435	Dropped 6 samples	n/a	n/a	n/a	n/a	n/a	n/a	6	UoHDataOffsetStream
168.994447	0.012000	dropped_samples	4281.934498	Dropped 3 samples	n/a	n/a	n/a	n/a	n/a	n/a	3	UoHDataOffsetStream
169.346756	0.000000	2-back	4282.286808	Steps:2 KeyPress:False Matched:False	1	2	false	false	Correct	true	n/a	n-backMarkers
170.576405	0.004000	dropped_samples	4283.516457	Dropped 1 samples	n/a	n/a	n/a	n/a	n/a	n/a	1	UoHDataOffsetStream
171.047598	0.000000	2-back	4283.987649	Steps:2 KeyPress:False Matched:False	1	2	false	false	Correct	true	n/a	n-backMarkers
171.349288	0.012000	dropped_samples	4284.289339	Dropped 3 samples	n/a	n/a	n/a	n/a	n/a	n/a	3	UoHDataOffsetStream
172.748000	0.000000	2-back	4285.688051	Steps:2 KeyPress:True Matched:False	0	2	true	false	Wrong	true	n/a	n-backMarkers
174.449077	0.000000	2-back	4287.389128	Steps:2 KeyPress:False Matched:False	1	2	false	false	Correct	true	n/a	n-backMarkers
175.713164	0.004000	dropped_samples	4288.653215	Dropped 1 samples	n/a	n/a	n/a	n/a	n/a	n/a	1	UoHDataOffsetStream
176.074570	0.004000	dropped_samples	4289.014622	Dropped 1 samples	n/a	n/a	n/a	n/a	n/a	n/a	1	UoHDataOffsetStream
176.150304	0.000000	2-back	4289.090355	Steps:2 KeyPress:False Matched:False	1	2	false	false	Correct	true	n/a	n-backMarkers
177.851247	0.000000	2-back	4290.791299	Steps:2 KeyPress:True Matched:False	0	2	true	false	Wrong	true	n/a	n-backMarkers
178.379176	0.004000	dropped_samples	4291.319228	Dropped 1 samples	n/a	n/a	n/a	n/a	n/a	n/a	1	UoHDataOffsetStream
179.551556	0.000000	2-back	4292.491607	Steps:2 KeyPress:False Matched:False	1	2	false	false	Correct	true	n/a	n-backMarkers
179.771688	0.004000	dropped_samples	4292.711739	Dropped 1 samples	n/a	n/a	n/a	n/a	n/a	n/a	1	UoHDataOffsetStream
180.212013	0.008000	dropped_samples	4293.152064	Dropped 2 samples	n/a	n/a	n/a	n/a	n/a	n/a	2	UoHDataOffsetStream
180.561789	0.052000	dropped_samples	4293.501840	Dropped 13 samples	n/a	n/a	n/a	n/a	n/a	n/a	13	UoHDataOffsetStream
181.252495	0.000000	2-back	4294.192547	Steps:2 KeyPress:False Matched:False	1	2	false	false	Correct	true	n/a	n-backMarkers
182.954128	0.000000	2-back	4295.894180	Steps:2 KeyPress:True Matched:False	0	2	true	false	Wrong	true	n/a	n-backMarkers
187.163386	0.004000	dropped_samples	4300.103438	Dropped 1 samples	n/a	n/a	n/a	n/a	n/a	n/a	1	UoHDataOffsetStream
187.715136	0.004000	dropped_samples	4300.655187	Dropped 1 samples	n/a	n/a	n/a	n/a	n/a	n/a	1	UoHDataOffsetStream
191.651006	0.000000	3-back	4304.591057	Steps:3 KeyPress:False Matched:False	1	3	false	false	Correct	true	n/a	n-backMarkers
193.351777	0.000000	3-back	4306.291829	Steps:3 KeyPress:False Matched:False	1	3	false	false	Correct	true	n/a	n-backMarkers
193.496391	0.004000	dropped_samples	4306.436442	Dropped 1 samples	n/a	n/a	n/a	n/a	n/a	n/a	1	UoHDataOffsetStream
195.052639	0.000000	3-back	4307.992691	Steps:3 KeyPress:False Matched:False	1	3	false	false	Correct	true	n/a	n-backMarkers
196.640914	0.004000	dropped_samples	4309.580966	Dropped 1 samples	n/a	n/a	n/a	n/a	n/a	n/a	1	UoHDataOffsetStream
196.753503	0.000000	3-back	4309.693555	Steps:3 KeyPress:False Matched:False	1	3	false	false	Correct	true	n/a	n-backMarkers
197.842138	0.004000	dropped_samples	4310.782189	Dropped 1 samples	n/a	n/a	n/a	n/a	n/a	n/a	1	UoHDataOffsetStream
198.455557	0.000000	3-back	4311.395609	Steps:3 KeyPress:False Matched:False	1	3	false	false	Correct	true	n/a	n-backMarkers
199.258118	0.004000	dropped_samples	4312.198170	Dropped 1 samples	n/a	n/a	n/a	n/a	n/a	n/a	1	UoHDataOffsetStream
200.156147	0.000000	3-back	4313.096198	Steps:3 KeyPress:False Matched:False	1	3	false	false	Correct	true	n/a	n-backMarkers
201.857532	0.000000	3-back	4314.797583	Steps:3 KeyPress:False Matched:False	1	3	false	false	Correct	true	n/a	n-backMarkers
203.558484	0.000000	3-back	4316.498535	Steps:3 KeyPress:True Matched:False	0	3	true	false	Wrong	true	n/a	n-backMarkers
205.259852	0.000000	3-back	4318.199904	Steps:3 KeyPress:False Matched:False	1	3	false	false	Correct	true	n/a	n-backMarkers
206.650667	0.012000	dropped_samples	4319.590718	Dropped 3 samples	n/a	n/a	n/a	n/a	n/a	n/a	3	UoHDataOffsetStream
206.959554	0.000000	3-back	4319.899605	Steps:3 KeyPress:False Matched:False	1	3	false	false	Correct	true	n/a	n-backMarkers
208.660860	0.000000	3-back	4321.600912	Steps:3 KeyPress:False Matched:False	1	3	false	false	Correct	true	n/a	n-backMarkers
209.385742	0.004000	dropped_samples	4322.325794	Dropped 1 samples	n/a	n/a	n/a	n/a	n/a	n/a	1	UoHDataOffsetStream
210.361614	0.000000	3-back	4323.301666	Steps:3 KeyPress:True Matched:False	0	3	true	false	Wrong	true	n/a	n-backMarkers
212.063429	0.000000	3-back	4325.003481	Steps:3 KeyPress:False Matched:True	0	3	false	true	Wrong	true	n/a	n-backMarkers
213.763675	0.000000	3-back	4326.703727	Steps:3 KeyPress:False Matched:False	1	3	false	false	Correct	true	n/a	n-backMarkers
215.464609	0.000000	3-back	4328.404661	Steps:3 KeyPress:False Matched:False	1	3	false	false	Correct	true	n/a	n-backMarkers
217.166137	0.000000	3-back	4330.106189	Steps:3 KeyPress:False Matched:False	1	3	false	false	Correct	true	n/a	n-backMarkers
218.769866	0.012000	dropped_samples	4331.709918	Dropped 3 samples	n/a	n/a	n/a	n/a	n/a	n/a	3	UoHDataOffsetStream
218.866062	0.000000	3-back	4331.806113	Steps:3 KeyPress:False Matched:False	1	3	false	false	Correct	true	n/a	n-backMarkers
220.567310	0.000000	3-back	4333.507361	Steps:3 KeyPress:False Matched:False	1	3	false	false	Correct	true	n/a	n-backMarkers
222.267435	0.000000	3-back	4335.207486	Steps:3 KeyPress:False Matched:False	1	3	false	false	Correct	true	n/a	n-backMarkers
223.208349	0.004000	dropped_samples	4336.148400	Dropped 1 samples	n/a	n/a	n/a	n/a	n/a	n/a	1	UoHDataOffsetStream
223.969514	0.000000	3-back	4336.909566	Steps:3 KeyPress:False Matched:False	1	3	false	false	Correct	true	n/a	n-backMarkers
226.904647	0.004000	dropped_samples	4339.844699	Dropped 1 samples	n/a	n/a	n/a	n/a	n/a	n/a	1	UoHDataOffsetStream
230.532563	0.008000	dropped_samples	4343.472614	Dropped 2 samples	n/a	n/a	n/a	n/a	n/a	n/a	2	UoHDataOffsetStream
232.671136	0.000000	4-back	4345.611187	Steps:4 KeyPress:False Matched:True	0	4	false	true	Wrong	true	n/a	n-backMarkers
233.242511	0.004000	dropped_samples	4346.182562	Dropped 1 samples	n/a	n/a	n/a	n/a	n/a	n/a	1	UoHDataOffsetStream
234.371355	0.000000	4-back	4347.311406	Steps:4 KeyPress:False Matched:False	1	4	false	false	Correct	true	n/a	n-backMarkers
236.071606	0.000000	4-back	4349.011657	Steps:4 KeyPress:False Matched:False	1	4	false	false	Correct	true	n/a	n-backMarkers
237.772939	0.000000	4-back	4350.712991	Steps:4 KeyPress:False Matched:False	1	4	false	false	Correct	true	n/a	n-backMarkers
239.267874	0.012000	dropped_samples	4352.207926	Dropped 3 samples	n/a	n/a	n/a	n/a	n/a	n/a	3	UoHDataOffsetStream
239.473654	0.000000	4-back	4352.413706	Steps:4 KeyPress:True Matched:True	1	4	true	true	Correct	true	n/a	n-backMarkers
241.174443	0.000000	4-back	4354.114494	Steps:4 KeyPress:False Matched:False	1	4	false	false	Correct	true	n/a	n-backMarkers
242.875347	0.000000	4-back	4355.815398	Steps:4 KeyPress:False Matched:True	0	4	false	true	Wrong	true	n/a	n-backMarkers
244.577346	0.000000	4-back	4357.517397	Steps:4 KeyPress:True Matched:False	0	4	true	false	Wrong	true	n/a	n-backMarkers
246.277591	0.000000	4-back	4359.217642	Steps:4 KeyPress:False Matched:False	1	4	false	false	Correct	true	n/a	n-backMarkers
246.396826	0.004000	dropped_samples	4359.336878	Dropped 1 samples	n/a	n/a	n/a	n/a	n/a	n/a	1	UoHDataOffsetStream
247.979455	0.000000	4-back	4360.919507	Steps:4 KeyPress:False Matched:False	1	4	false	false	Correct	true	n/a	n-backMarkers
248.291586	0.008000	dropped_samples	4361.231638	Dropped 2 samples	n/a	n/a	n/a	n/a	n/a	n/a	2	UoHDataOffsetStream
249.680438	0.000000	4-back	4362.620489	Steps:4 KeyPress:True Matched:True	1	4	true	true	Correct	true	n/a	n-backMarkers
249.849533	0.004000	dropped_samples	4362.789584	Dropped 1 samples	n/a	n/a	n/a	n/a	n/a	n/a	1	UoHDataOffsetStream
250.859738	0.004000	dropped_samples	4363.799789	Dropped 1 samples	n/a	n/a	n/a	n/a	n/a	n/a	1	UoHDataOffsetStream
251.381498	0.000000	4-back	4364.321550	Steps:4 KeyPress:False Matched:True	0	4	false	true	Wrong	true	n/a	n-backMarkers
253.042386	0.004000	dropped_samples	4365.982438	Dropped 1 samples	n/a	n/a	n/a	n/a	n/a	n/a	1	UoHDataOffsetStream
253.082310	0.000000	4-back	4366.022361	Steps:4 KeyPress:False Matched:False	1	4	false	false	Correct	true	n/a	n-backMarkers
254.004320	0.004000	dropped_samples	4366.944372	Dropped 1 samples	n/a	n/a	n/a	n/a	n/a	n/a	1	UoHDataOffsetStream
254.782579	0.000000	4-back	4367.722631	Steps:4 KeyPress:False Matched:False	1	4	false	false	Correct	true	n/a	n-backMarkers
256.482540	0.000000	4-back	4369.422592	Steps:4 KeyPress:False Matched:False	1	4	false	false	Correct	true	n/a	n-backMarkers
256.548220	0.012000	dropped_samples	4369.488271	Dropped 3 samples	n/a	n/a	n/a	n/a	n/a	n/a	3	UoHDataOffsetStream
258.183313	0.000000	4-back	4371.123364	Steps:4 KeyPress:True Matched:True	1	4	true	true	Correct	true	n/a	n-backMarkers
259.883502	0.000000	4-back	4372.823553	Steps:4 KeyPress:False Matched:True	0	4	false	true	Wrong	true	n/a	n-backMarkers
260.532987	0.012000	dropped_samples	4373.473039	Dropped 3 samples	n/a	n/a	n/a	n/a	n/a	n/a	3	UoHDataOffsetStream
261.585486	0.000000	4-back	4374.525538	Steps:4 KeyPress:False Matched:False	1	4	false	false	Correct	true	n/a	n-backMarkers
262.017011	0.004000	dropped_samples	4374.957063	Dropped 1 samples	n/a	n/a	n/a	n/a	n/a	n/a	1	UoHDataOffsetStream
263.286392	0.000000	4-back	4376.226444	Steps:4 KeyPress:False Matched:False	1	4	false	false	Correct	true	n/a	n-backMarkers
264.987489	0.000000	4-back	4377.927541	Steps:4 KeyPress:False Matched:False	1	4	false	false	Correct	true	n/a	n-backMarkers
265.692159	0.000000	finished_tutorial_n_back	4378.632210	Finished tutorial n-back	n/a	n/a	n/a	n/a	n/a	true	n/a	n-backMarkers
267.392970	0.004000	dropped_samples	4380.333021	Dropped 1 samples	n/a	n/a	n/a	n/a	n/a	n/a	1	UoHDataOffsetStream
268.164479	0.004000	dropped_samples	4381.104530	Dropped 1 samples	n/a	n/a	n/a	n/a	n/a	n/a	1	UoHDataOffsetStream
268.520895	0.004000	dropped_samples	4381.460946	Dropped 1 samples	n/a	n/a	n/a	n/a	n/a	n/a	1	UoHDataOffsetStream
272.861329	0.000000	started_n_back	4385.801380	Started n-back	n/a	n/a	n/a	n/a	n/a	false	n/a	n-backMarkers
276.587308	0.004000	dropped_samples	4389.527359	Dropped 1 samples	n/a	n/a	n/a	n/a	n/a	n/a	1	UoHDataOffsetStream
280.864182	0.000000	1-back	4393.804233	Steps:1 KeyPress:False Matched:False	1	1	false	false	Correct	false	n/a	n-backMarkers
282.563850	0.008000	dropped_samples	4395.503901	Dropped 2 samples	n/a	n/a	n/a	n/a	n/a	n/a	2	UoHDataOffsetStream
282.565166	0.000000	1-back	4395.505218	Steps:1 KeyPress:True Matched:False	0	1	true	false	Wrong	false	n/a	n-backMarkers
283.520912	0.004000	dropped_samples	4396.460964	Dropped 1 samples	n/a	n/a	n/a	n/a	n/a	n/a	1	UoHDataOffsetStream
284.170313	0.008000	dropped_samples	4397.110364	Dropped 2 samples	n/a	n/a	n/a	n/a	n/a	n/a	2	UoHDataOffsetStream
284.266114	0.000000	1-back	4397.206165	Steps:1 KeyPress:False Matched:False	1	1	false	false	Correct	false	n/a	n-backMarkers
285.967050	0.000000	1-back	4398.907101	Steps:1 KeyPress:True Matched:False	0	1	true	false	Wrong	false	n/a	n-backMarkers
287.668058	0.000000	1-back	4400.608109	Steps:1 KeyPress:False Matched:True	0	1	false	true	Wrong	false	n/a	n-backMarkers
287.676217	0.012000	dropped_samples	4400.616269	Dropped 3 samples	n/a	n/a	n/a	n/a	n/a	n/a	3	UoHDataOffsetStream
288.804110	0.012000	dropped_samples	4401.744161	Dropped 3 samples	n/a	n/a	n/a	n/a	n/a	n/a	3	UoHDataOffsetStream
289.368231	0.000000	1-back	4402.308282	Steps:1 KeyPress:False Matched:False	1	1	false	false	Correct	false	n/a	n-backMarkers
289.980878	0.020000	dropped_samples	4402.920930	Dropped 5 samples	n/a	n/a	n/a	n/a	n/a	n/a	5	UoHDataOffsetStream
290.723117	0.008000	dropped_samples	4403.663168	Dropped 2 samples	n/a	n/a	n/a	n/a	n/a	n/a	2	UoHDataOffsetStream
290.894145	0.004000	dropped_samples	4403.834196	Dropped 1 samples	n/a	n/a	n/a	n/a	n/a	n/a	1	UoHDataOffsetStream
291.070274	0.000000	1-back	4404.010325	Steps:1 KeyPress:True Matched:False	0	1	true	false	Wrong	false	n/a	n-backMarkers
292.770884	0.000000	1-back	4405.710936	Steps:1 KeyPress:False Matched:True	0	1	false	true	Wrong	false	n/a	n-backMarkers
292.857203	0.004000	dropped_samples	4405.797254	Dropped 1 samples	n/a	n/a	n/a	n/a	n/a	n/a	1	UoHDataOffsetStream
293.579526	0.004000	dropped_samples	4406.519577	Dropped 1 samples	n/a	n/a	n/a	n/a	n/a	n/a	1	UoHDataOffsetStream
293.818790	0.012000	dropped_samples	4406.758841	Dropped 3 samples	n/a	n/a	n/a	n/a	n/a	n/a	3	UoHDataOffsetStream
294.472027	0.000000	1-back	4407.412079	Steps:1 KeyPress:False Matched:False	1	1	false	false	Correct	false	n/a	n-backMarkers
296.174205	0.000000	1-back	4409.114257	Steps:1 KeyPress:True Matched:False	0	1	true	false	Wrong	false	n/a	n-backMarkers
297.874673	0.000000	1-back	4410.814724	Steps:1 KeyPress:False Matched:False	1	1	false	false	Correct	false	n/a	n-backMarkers
299.574912	0.000000	1-back	4412.514964	Steps:1 KeyPress:True Matched:False	0	1	true	false	Wrong	false	n/a	n-backMarkers
301.275081	0.000000	1-back	4414.215132	Steps:1 KeyPress:False Matched:False	1	1	false	false	Correct	false	n/a	n-backMarkers
302.976214	0.000000	1-back	4415.916266	Steps:1 KeyPress:True Matched:False	0	1	true	false	Wrong	false	n/a	n-backMarkers
304.677995	0.000000	1-back	4417.618046	Steps:1 KeyPress:True Matched:True	1	1	true	true	Correct	false	n/a	n-backMarkers
304.883256	0.004000	dropped_samples	4417.823307	Dropped 1 samples	n/a	n/a	n/a	n/a	n/a	n/a	1	UoHDataOffsetStream
306.378908	0.000000	1-back	4419.318960	Steps:1 KeyPress:False Matched:False	1	1	false	false	Correct	false	n/a	n-backMarkers
307.777845	0.004000	dropped_samples	4420.717897	Dropped 1 samples	n/a	n/a	n/a	n/a	n/a	n/a	1	UoHDataOffsetStream
308.079494	0.000000	1-back	4421.019546	Steps:1 KeyPress:True Matched:False	0	1	true	false	Wrong	false	n/a	n-backMarkers
309.781000	0.000000	1-back	4422.721052	Steps:1 KeyPress:False Matched:True	0	1	false	true	Wrong	false	n/a	n-backMarkers
311.482017	0.000000	1-back	4424.422068	Steps:1 KeyPress:False Matched:False	1	1	false	false	Correct	false	n/a	n-backMarkers
313.182962	0.000000	1-back	4426.123013	Steps:1 KeyPress:True Matched:False	0	1	true	false	Wrong	false	n/a	n-backMarkers
314.194729	0.012000	dropped_samples	4427.134781	Dropped 3 samples	n/a	n/a	n/a	n/a	n/a	n/a	3	UoHDataOffsetStream
314.884077	0.000000	1-back	4427.824129	Steps:1 KeyPress:False Matched:True	0	1	false	true	Wrong	false	n/a	n-backMarkers
315.732857	0.012000	dropped_samples	4428.672909	Dropped 3 samples	n/a	n/a	n/a	n/a	n/a	n/a	3	UoHDataOffsetStream
316.584994	0.000000	1-back	4429.525045	Steps:1 KeyPress:False Matched:False	1	1	false	false	Correct	false	n/a	n-backMarkers
318.286022	0.000000	1-back	4431.226074	Steps:1 KeyPress:True Matched:False	0	1	true	false	Wrong	false	n/a	n-backMarkers
319.987480	0.000000	1-back	4432.927531	Steps:1 KeyPress:False Matched:True	0	1	false	true	Wrong	false	n/a	n-backMarkers
321.688039	0.000000	1-back	4434.628091	Steps:1 KeyPress:False Matched:False	1	1	false	false	Correct	false	n/a	n-backMarkers
323.389024	0.000000	1-back	4436.329075	Steps:1 KeyPress:True Matched:False	0	1	true	false	Wrong	false	n/a	n-backMarkers
323.413589	0.008000	dropped_samples	4436.353641	Dropped 2 samples	n/a	n/a	n/a	n/a	n/a	n/a	2	UoHDataOffsetStream
323.555125	0.004000	dropped_samples	4436.495176	Dropped 1 samples	n/a	n/a	n/a	n/a	n/a	n/a	1	UoHDataOffsetStream
323.769961	0.004000	dropped_samples	4436.710013	Dropped 1 samples	n/a	n/a	n/a	n/a	n/a	n/a	1	UoHDataOffsetStream
325.090045	0.000000	1-back	4438.030097	Steps:1 KeyPress:False Matched:True	0	1	false	true	Wrong	false	n/a	n-backMarkers
326.790466	0.000000	1-back	4439.730517	Steps:1 KeyPress:False Matched:False	1	1	false	false	Correct	false	n/a	n-backMarkers
328.490865	0.000000	1-back	4441.430916	Steps:1 KeyPress:True Matched:False	0	1	true	false	Wrong	false	n/a	n-backMarkers
329.556140	0.004000	dropped_samples	4442.496192	Dropped 1 samples	n/a	n/a	n/a	n/a	n/a	n/a	1	UoHDataOffsetStream
330.192000	0.000000	1-back	4443.132051	Steps:1 KeyPress:False Matched:False	1	1	false	false	Correct	false	n/a	n-backMarkers
331.892072	0.000000	1-back	4444.832124	Steps:1 KeyPress:True Matched:False	0	1	true	false	Wrong	false	n/a	n-backMarkers
333.593000	0.000000	1-back	4446.533051	Steps:1 KeyPress:False Matched:True	0	1	false	true	Wrong	false	n/a	n-backMarkers
335.294286	0.000000	1-back	4448.234338	Steps:1 KeyPress:False Matched:False	1	1	false	false	Correct	false	n/a	n-backMarkers
336.226111	0.004000	dropped_samples	4449.166162	Dropped 1 samples	n/a	n/a	n/a	n/a	n/a	n/a	1	UoHDataOffsetStream
336.995928	0.000000	1-back	4449.935980	Steps:1 KeyPress:True Matched:False	0	1	true	false	Wrong	false	n/a	n-backMarkers
338.695961	0.000000	1-back	4451.636012	Steps:1 KeyPress:False Matched:True	0	1	false	true	Wrong	false	n/a	n-backMarkers
340.396929	0.000000	1-back	4453.336980	Steps:1 KeyPress:True Matched:False	0	1	true	false	Wrong	false	n/a	n-backMarkers
342.098574	0.000000	1-back	4455.038626	Steps:1 KeyPress:True Matched:True	1	1	true	true	Correct	false	n/a	n-backMarkers
343.798978	0.000000	1-back	4456.739030	Steps:1 KeyPress:False Matched:True	0	1	false	true	Wrong	false	n/a	n-backMarkers
344.194812	0.004000	dropped_samples	4457.134863	Dropped 1 samples	n/a	n/a	n/a	n/a	n/a	n/a	1	UoHDataOffsetStream
345.499953	0.000000	1-back	4458.440004	Steps:1 KeyPress:False Matched:True	0	1	false	true	Wrong	false	n/a	n-backMarkers
347.201796	0.000000	1-back	4460.141848	Steps:1 KeyPress:False Matched:False	1	1	false	false	Correct	false	n/a	n-backMarkers
347.437738	0.004000	dropped_samples	4460.377790	Dropped 1 samples	n/a	n/a	n/a	n/a	n/a	n/a	1	UoHDataOffsetStream
348.902859	0.000000	1-back	4461.842910	Steps:1 KeyPress:False Matched:False	1	1	false	false	Correct	false	n/a	n-backMarkers
349.761203	0.004000	dropped_samples	4462.701255	Dropped 1 samples	n/a	n/a	n/a	n/a	n/a	n/a	1	UoHDataOffsetStream
350.603982	0.000000	1-back	4463.544034	Steps:1 KeyPress:True Matched:False	0	1	true	false	Wrong	false	n/a	n-backMarkers
352.305067	0.000000	1-back	4465.245119	Steps:1 KeyPress:False Matched:False	1	1	false	false	Correct	false	n/a	n-backMarkers
354.006897	0.000000	1-back	4466.946949	Steps:1 KeyPress:True Matched:False	0	1	true	false	Wrong	false	n/a	n-backMarkers
354.517092	0.008000	dropped_samples	4467.457143	Dropped 2 samples	n/a	n/a	n/a	n/a	n/a	n/a	2	UoHDataOffsetStream
355.707592	0.000000	1-back	4468.647644	Steps:1 KeyPress:False Matched:False	1	1	false	false	Correct	false	n/a	n-backMarkers
357.324718	0.004000	dropped_samples	4470.264769	Dropped 1 samples	n/a	n/a	n/a	n/a	n/a	n/a	1	UoHDataOffsetStream
357.407966	0.000000	1-back	4470.348017	Steps:1 KeyPress:True Matched:False	0	1	true	false	Wrong	false	n/a	n-backMarkers
359.109238	0.000000	1-back	4472.049289	Steps:1 KeyPress:False Matched:False	1	1	false	false	Correct	false	n/a	n-backMarkers
360.810854	0.000000	1-back	4473.750906	Steps:1 KeyPress:True Matched:False	0	1	true	false	Wrong	false	n/a	n-backMarkers
362.512012	0.000000	1-back	4475.452063	Steps:1 KeyPress:True Matched:True	1	1	true	true	Correct	false	n/a	n-backMarkers
364.213864	0.000000	1-back	4477.153915	Steps:1 KeyPress:False Matched:True	0	1	false	true	Wrong	false	n/a	n-backMarkers
365.915109	0.000000	1-back	4478.855161	Steps:1 KeyPress:False Matched:True	0	1	false	true	Wrong	false	n/a	n-backMarkers
367.616906	0.000000	1-back	4480.556958	Steps:1 KeyPress:False Matched:False	1	1	false	false	Correct	false	n/a	n-backMarkers
369.317741	0.000000	1-back	4482.257792	Steps:1 KeyPress:False Matched:False	1	1	false	false	Correct	false	n/a	n-backMarkers
370.039805	0.004000	dropped_samples	4482.979857	Dropped 1 samples	n/a	n/a	n/a	n/a	n/a	n/a	1	UoHDataOffsetStream
371.018859	0.000000	1-back	4483.958910	Steps:1 KeyPress:True Matched:False	0	1	true	false	Wrong	false	n/a	n-backMarkers
372.719899	0.000000	1-back	4485.659950	Steps:1 KeyPress:False Matched:False	1	1	false	false	Correct	false	n/a	n-backMarkers
373.281776	0.012000	dropped_samples	4486.221828	Dropped 3 samples	n/a	n/a	n/a	n/a	n/a	n/a	3	UoHDataOffsetStream
374.422208	0.000000	1-back	4487.362259	Steps:1 KeyPress:True Matched:False	0	1	true	false	Wrong	false	n/a	n-backMarkers
374.507360	0.012000	dropped_samples	4487.447411	Dropped 3 samples	n/a	n/a	n/a	n/a	n/a	n/a	3	UoHDataOffsetStream
375.708540	0.004000	dropped_samples	4488.648592	Dropped 1 samples	n/a	n/a	n/a	n/a	n/a	n/a	1	UoHDataOffsetStream
376.121961	0.000000	1-back	4489.062012	Steps:1 KeyPress:False Matched:False	1	1	false	false	Correct	false	n/a	n-backMarkers
377.823542	0.000000	1-back	4490.763594	Steps:1 KeyPress:True Matched:False	0	1	true	false	Wrong	false	n/a	n-backMarkers
379.524785	0.000000	1-back	4492.464836	Steps:1 KeyPress:False Matched:False	1	1	false	false	Correct	false	n/a	n-backMarkers
381.224926	0.000000	1-back	4494.164977	Steps:1 KeyPress:True Matched:False	0	1	true	false	Wrong	false	n/a	n-backMarkers
382.926109	0.000000	1-back	4495.866161	Steps:1 KeyPress:False Matched:True	0	1	false	true	Wrong	false	n/a	n-backMarkers
384.626630	0.000000	1-back	4497.566681	Steps:1 KeyPress:False Matched:True	0	1	false	true	Wrong	false	n/a	n-backMarkers
386.327782	0.000000	1-back	4499.267834	Steps:1 KeyPress:False Matched:False	1	1	false	false	Correct	false	n/a	n-backMarkers
387.539856	0.012000	dropped_samples	4500.479907	Dropped 3 samples	n/a	n/a	n/a	n/a	n/a	n/a	3	UoHDataOffsetStream
388.028840	0.000000	1-back	4500.968892	Steps:1 KeyPress:False Matched:False	1	1	false	false	Correct	false	n/a	n-backMarkers
389.729065	0.000000	1-back	4502.669117	Steps:1 KeyPress:True Matched:False	0	1	true	false	Wrong	false	n/a	n-backMarkers
391.430849	0.000000	1-back	4504.370901	Steps:1 KeyPress:False Matched:True	0	1	false	true	Wrong	false	n/a	n-backMarkers
392.817903	0.004000	dropped_samples	4505.757954	Dropped 1 samples	n/a	n/a	n/a	n/a	n/a	n/a	1	UoHDataOffsetStream
393.132737	0.000000	1-back	4506.072789	Steps:1 KeyPress:False Matched:True	0	1	false	true	Wrong	false	n/a	n-backMarkers
393.901867	0.004000	dropped_samples	4506.841919	Dropped 1 samples	n/a	n/a	n/a	n/a	n/a	n/a	1	UoHDataOffsetStream
394.833952	0.000000	1-back	4507.774004	Steps:1 KeyPress:False Matched:False	1	1	false	false	Correct	false	n/a	n-backMarkers
396.534722	0.000000	1-back	4509.474774	Steps:1 KeyPress:True Matched:False	0	1	true	false	Wrong	false	n/a	n-backMarkers
397.476122	0.004000	dropped_samples	4510.416173	Dropped 1 samples	n/a	n/a	n/a	n/a	n/a	n/a	1	UoHDataOffsetStream
398.235803	0.000000	1-back	4511.175854	Steps:1 KeyPress:False Matched:True	0	1	false	true	Wrong	false	n/a	n-backMarkers
399.854057	0.004000	dropped_samples	4512.794108	Dropped 1 samples	n/a	n/a	n/a	n/a	n/a	n/a	1	UoHDataOffsetStream
399.937186	0.000000	1-back	4512.877238	Steps:1 KeyPress:False Matched:True	0	1	false	true	Wrong	false	n/a	n-backMarkers
401.338461	0.012000	dropped_samples	4514.278513	Dropped 3 samples	n/a	n/a	n/a	n/a	n/a	n/a	3	UoHDataOffsetStream
401.638061	0.000000	1-back	4514.578112	Steps:1 KeyPress:False Matched:False	1	1	false	false	Correct	false	n/a	n-backMarkers
401.916570	0.004000	dropped_samples	4514.856622	Dropped 1 samples	n/a	n/a	n/a	n/a	n/a	n/a	1	UoHDataOffsetStream
402.515248	0.004000	dropped_samples	4515.455299	Dropped 1 samples	n/a	n/a	n/a	n/a	n/a	n/a	1	UoHDataOffsetStream
402.949778	0.004000	dropped_samples	4515.889830	Dropped 1 samples	n/a	n/a	n/a	n/a	n/a	n/a	1	UoHDataOffsetStream
403.282156	0.012000	dropped_samples	4516.222207	Dropped 3 samples	n/a	n/a	n/a	n/a	n/a	n/a	3	UoHDataOffsetStream
403.338077	0.000000	1-back	4516.278128	Steps:1 KeyPress:True Matched:False	0	1	true	false	Wrong	false	n/a	n-backMarkers
403.980079	0.008000	dropped_samples	4516.920130	Dropped 2 samples	n/a	n/a	n/a	n/a	n/a	n/a	2	UoHDataOffsetStream
405.039915	0.000000	1-back	4517.979966	Steps:1 KeyPress:False Matched:False	1	1	false	false	Correct	false	n/a	n-backMarkers
406.740787	0.000000	1-back	4519.680838	Steps:1 KeyPress:True Matched:False	0	1	true	false	Wrong	false	n/a	n-backMarkers
407.266254	0.004000	dropped_samples	4520.206305	Dropped 1 samples	n/a	n/a	n/a	n/a	n/a	n/a	1	UoHDataOffsetStream
408.442218	0.000000	1-back	4521.382269	Steps:1 KeyPress:False Matched:True	0	1	false	true	Wrong	false	n/a	n-backMarkers
410.142672	0.000000	1-back	4523.082723	Steps:1 KeyPress:False Matched:True	0	1	false	true	Wrong	false	n/a	n-backMarkers
410.996998	0.012000	dropped_samples	4523.937050	Dropped 3 samples	n/a	n/a	n/a	n/a	n/a	n/a	3	UoHDataOffsetStream
411.843569	0.000000	1-back	4524.783621	Steps:1 KeyPress:False Matched:False	1	1	false	false	Correct	false	n/a	n-backMarkers
413.544069	0.000000	1-back	4526.484121	Steps:1 KeyPress:False Matched:False	1	1	false	false	Correct	false	n/a	n-backMarkers
415.244880	0.000000	1-back	4528.184932	Steps:1 KeyPress:False Matched:False	1	1	false	false	Correct	false	n/a	n-backMarkers
415.933156	0.004000	dropped_samples	4528.873207	Dropped 1 samples	n/a	n/a	n/a	n/a	n/a	n/a	1	UoHDataOffsetStream
416.945888	0.000000	1-back	4529.885940	Steps:1 KeyPress:True Matched:False	0	1	true	false	Wrong	false	n/a	n-backMarkers
417.422452	0.004000	dropped_samples	4530.362503	Dropped 1 samples	n/a	n/a	n/a	n/a	n/a	n/a	1	UoHDataOffsetStream
418.646820	0.000000	1-back	4531.586872	Steps:1 KeyPress:False Matched:False	1	1	false	false	Correct	false	n/a	n-backMarkers
420.347320	0.000000	1-back	4533.287371	Steps:1 KeyPress:True Matched:False	0	1	true	false	Wrong	false	n/a	n-backMarkers
422.047834	0.000000	1-back	4534.987886	Steps:1 KeyPress:False Matched:False	1	1	false	false	Correct	false	n/a	n-backMarkers
423.301370	0.004000	dropped_samples	4536.241421	Dropped 1 samples	n/a	n/a	n/a	n/a	n/a	n/a	1	UoHDataOffsetStream
423.748647	0.000000	1-back	4536.688699	Steps:1 KeyPress:True Matched:False	0	1	true	false	Wrong	false	n/a	n-backMarkers
425.449915	0.000000	1-back	4538.389966	Steps:1 KeyPress:False Matched:True	0	1	false	true	Wrong	false	n/a	n-backMarkers
427.150750	0.000000	1-back	4540.090801	Steps:1 KeyPress:False Matched:False	1	1	false	false	Correct	false	n/a	n-backMarkers
428.850779	0.000000	1-back	4541.790830	Steps:1 KeyPress:True Matched:False	0	1	true	false	Wrong	false	n/a	n-backMarkers
430.551717	0.000000	1-back	4543.491768	Steps:1 KeyPress:False Matched:False	1	1	false	false	Correct	false	n/a	n-backMarkers
432.251783	0.000000	1-back	4545.191834	Steps:1 KeyPress:True Matched:False	0	1	true	false	Wrong	false	n/a	n-backMarkers
432.876548	0.004000	dropped_samples	4545.816599	Dropped 1 samples	n/a	n/a	n/a	n/a	n/a	n/a	1	UoHDataOffsetStream
433.952745	0.000000	1-back	4546.892796	Steps:1 KeyPress:False Matched:True	0	1	false	true	Wrong	false	n/a	n-backMarkers
434.171527	0.004000	dropped_samples	4547.111578	Dropped 1 samples	n/a	n/a	n/a	n/a	n/a	n/a	1	UoHDataOffsetStream
435.653961	0.000000	1-back	4548.594012	Steps:1 KeyPress:False Matched:False	1	1	false	false	Correct	false	n/a	n-backMarkers
437.051384	0.008000	dropped_samples	4549.991435	Dropped 2 samples	n/a	n/a	n/a	n/a	n/a	n/a	2	UoHDataOffsetStream
437.354851	0.000000	1-back	4550.294902	Steps:1 KeyPress:True Matched:False	0	1	true	false	Wrong	false	n/a	n-backMarkers
439.054881	0.000000	1-back	4551.994932	Steps:1 KeyPress:False Matched:False	1	1	false	false	Correct	false	n/a	n-backMarkers
440.755697	0.000000	1-back	4553.695748	Steps:1 KeyPress:True Matched:False	0	1	true	false	Wrong	false	n/a	n-backMarkers
441.494744	0.012000	dropped_samples	4554.434796	Dropped 3 samples	n/a	n/a	n/a	n/a	n/a	n/a	3	UoHDataOffsetStream
442.456734	0.000000	1-back	4555.396786	Steps:1 KeyPress:False Matched:True	0	1	false	true	Wrong	false	n/a	n-backMarkers
443.218348	0.008000	dropped_samples	4556.158400	Dropped 2 samples	n/a	n/a	n/a	n/a	n/a	n/a	2	UoHDataOffsetStream
444.158642	0.000000	1-back	4557.098693	Steps:1 KeyPress:False Matched:True	0	1	false	true	Wrong	false	n/a	n-backMarkers
445.859702	0.000000	1-back	4558.799753	Steps:1 KeyPress:False Matched:False	1	1	false	false	Correct	false	n/a	n-backMarkers
447.560836	0.000000	1-back	4560.500887	Steps:1 KeyPress:False Matched:False	1	1	false	false	Correct	false	n/a	n-backMarkers
449.261971	0.000000	1-back	4562.202022	Steps:1 KeyPress:False Matched:False	1	1	false	false	Correct	false	n/a	n-backMarkers
451.162725	0.004000	dropped_samples	4564.102776	Dropped 1 samples	n/a	n/a	n/a	n/a	n/a	n/a	1	UoHDataOffsetStream
452.710030	0.004000	dropped_samples	4565.650081	Dropped 1 samples	n/a	n/a	n/a	n/a	n/a	n/a	1	UoHDataOffsetStream
454.527205	0.004000	dropped_samples	4567.467257	Dropped 1 samples	n/a	n/a	n/a	n/a	n/a	n/a	1	UoHDataOffsetStream
454.907804	0.004000	dropped_samples	4567.847855	Dropped 1 samples	n/a	n/a	n/a	n/a	n/a	n/a	1	UoHDataOffsetStream
457.976844	0.000000	2-back	4570.916895	Steps:2 KeyPress:False Matched:False	1	2	false	false	Correct	false	n/a	n-backMarkers
458.555409	0.008000	dropped_samples	4571.495460	Dropped 2 samples	n/a	n/a	n/a	n/a	n/a	n/a	2	UoHDataOffsetStream
459.677723	0.000000	2-back	4572.617774	Steps:2 KeyPress:False Matched:False	1	2	false	false	Correct	false	n/a	n-backMarkers
461.378606	0.000000	2-back	4574.318657	Steps:2 KeyPress:False Matched:False	1	2	false	false	Correct	false	n/a	n-backMarkers
462.349274	0.004000	dropped_samples	4575.289325	Dropped 1 samples	n/a	n/a	n/a	n/a	n/a	n/a	1	UoHDataOffsetStream
463.078714	0.000000	2-back	4576.018765	Steps:2 KeyPress:False Matched:False	1	2	false	false	Correct	false	n/a	n-backMarkers
463.931244	0.004000	dropped_samples	4576.871296	Dropped 1 samples	n/a	n/a	n/a	n/a	n/a	n/a	1	UoHDataOffsetStream
464.778749	0.000000	2-back	4577.718801	Steps:2 KeyPress:True Matched:False	0	2	true	false	Wrong	false	n/a	n-backMarkers
465.010504	0.004000	dropped_samples	4577.950556	Dropped 1 samples	n/a	n/a	n/a	n/a	n/a	n/a	1	UoHDataOffsetStream
466.479763	0.000000	2-back	4579.419814	Steps:2 KeyPress:False Matched:True	0	2	false	true	Wrong	false	n/a	n-backMarkers
466.524030	0.004000	dropped_samples	4579.464081	Dropped 1 samples	n/a	n/a	n/a	n/a	n/a	n/a	1	UoHDataOffsetStream
468.180708	0.000000	2-back	4581.120759	Steps:2 KeyPress:False Matched:False	1	2	false	false	Correct	false	n/a	n-backMarkers
469.881762	0.000000	2-back	4582.821814	Steps:2 KeyPress:True Matched:True	1	2	true	true	Correct	false	n/a	n-backMarkers
471.583434	0.000000	2-back	4584.523485	Steps:2 KeyPress:False Matched:False	1	2	false	false	Correct	false	n/a	n-backMarkers
473.284151	0.000000	2-back	4586.224203	Steps:2 KeyPress:True Matched:True	1	2	true	true	Correct	false	n/a	n-backMarkers
474.854161	0.004000	dropped_samples	4587.794213	Dropped 1 samples	n/a	n/a	n/a	n/a	n/a	n/a	1	UoHDataOffsetStream
474.985618	0.000000	2-back	4587.925669	Steps:2 KeyPress:False Matched:True	0	2	false	true	Wrong	false	n/a	n-backMarkers
475.381521	0.004000	dropped_samples	4588.321572	Dropped 1 samples	n/a	n/a	n/a	n/a	n/a	n/a	1	UoHDataOffsetStream
476.675439	0.004000	dropped_samples	4589.615490	Dropped 1 samples	n/a	n/a	n/a	n/a	n/a	n/a	1	UoHDataOffsetStream
476.686636	0.000000	2-back	4589.626687	Steps:2 KeyPress:False Matched:False	1	2	false	false	Correct	false	n/a	n-backMarkers
478.387651	0.000000	2-back	4591.327702	Steps:2 KeyPress:False Matched:False	1	2	false	false	Correct	false	n/a	n-backMarkers
479.077762	0.004000	dropped_samples	4592.017813	Dropped 1 samples	n/a	n/a	n/a	n/a	n/a	n/a	1	UoHDataOffsetStream
480.088854	0.000000	2-back	4593.028905	Steps:2 KeyPress:False Matched:False	1	2	false	false	Correct	false	n/a	n-backMarkers
481.789653	0.000000	2-back	4594.729704	Steps:2 KeyPress:True Matched:False	0	2	true	false	Wrong	false	n/a	n-backMarkers
482.222328	0.004000	dropped_samples	4595.162380	Dropped 1 samples	n/a	n/a	n/a	n/a	n/a	n/a	1	UoHDataOffsetStream
483.490724	0.000000	2-back	4596.430775	Steps:2 KeyPress:False Matched:True	0	2	false	true	Wrong	false	n/a	n-backMarkers
485.191636	0.000000	2-back	4598.131687	Steps:2 KeyPress:False Matched:False	1	2	false	false	Correct	false	n/a	n-backMarkers
486.892720	0.000000	2-back	4599.832772	Steps:2 KeyPress:False Matched:False	1	2	false	false	Correct	false	n/a	n-backMarkers
488.594682	0.000000	2-back	4601.534733	Steps:2 KeyPress:True Matched:False	0	2	true	false	Wrong	false	n/a	n-backMarkers
489.566433	0.004000	dropped_samples	4602.506484	Dropped 1 samples	n/a	n/a	n/a	n/a	n/a	n/a	1	UoHDataOffsetStream
489.639506	0.012000	dropped_samples	4602.579557	Dropped 3 samples	n/a	n/a	n/a	n/a	n/a	n/a	3	UoHDataOffsetStream
490.294799	0.000000	2-back	4603.234850	Steps:2 KeyPress:False Matched:False	1	2	false	false	Correct	false	n/a	n-backMarkers
490.742852	0.004000	dropped_samples	4603.682904	Dropped 1 samples	n/a	n/a	n/a	n/a	n/a	n/a	1	UoHDataOffsetStream
491.460614	0.008000	dropped_samples	4604.400666	Dropped 2 samples	n/a	n/a	n/a	n/a	n/a	n/a	2	UoHDataOffsetStream
491.996525	0.000000	2-back	4604.936577	Steps:2 KeyPress:True Matched:False	0	2	true	false	Wrong	false	n/a	n-backMarkers
493.697491	0.000000	2-back	4606.637542	Steps:2 KeyPress:False Matched:False	1	2	false	false	Correct	false	n/a	n-backMarkers
493.716525	0.012000	dropped_samples	4606.656576	Dropped 3 samples	n/a	n/a	n/a	n/a	n/a	n/a	3	UoHDataOffsetStream
495.398705	0.000000	2-back	4608.338756	Steps:2 KeyPress:True Matched:False	0	2	true	false	Wrong	false	n/a	n-backMarkers
495.611003	0.004000	dropped_samples	4608.551054	Dropped 1 samples	n/a	n/a	n/a	n/a	n/a	n/a	1	UoHDataOffsetStream
497.098684	0.000000	2-back	4610.038735	Steps:2 KeyPress:False Matched:False	1	2	false	false	Correct	false	n/a	n-backMarkers
498.516317	0.004000	dropped_samples	4611.456369	Dropped 1 samples	n/a	n/a	n/a	n/a	n/a	n/a	1	UoHDataOffsetStream
498.799752	0.000000	2-back	4611.739803	Steps:2 KeyPress:False Matched:False	1	2	false	false	Correct	false	n/a	n-backMarkers
500.500604	0.000000	2-back	4613.440656	Steps:2 KeyPress:True Matched:False	0	2	true	false	Wrong	false	n/a	n-backMarkers
502.201026	0.000000	2-back	4615.141077	Steps:2 KeyPress:False Matched:True	0	2	false	true	Wrong	false	n/a	n-backMarkers
503.901087	0.000000	2-back	4616.841138	Steps:2 KeyPress:False Matched:False	1	2	false	false	Correct	false	n/a	n-backMarkers
505.602293	0.000000	2-back	4618.542344	Steps:2 KeyPress:False Matched:False	1	2	false	false	Correct	false	n/a	n-backMarkers
506.582709	0.004000	dropped_samples	4619.522760	Dropped 1 samples	n/a	n/a	n/a	n/a	n/a	n/a	1	UoHDataOffsetStream
507.303646	0.000000	2-back	4620.243698	Steps:2 KeyPress:True Matched:False	0	2	true	false	Wrong	false	n/a	n-backMarkers
508.887395	0.004000	dropped_samples	4621.827447	Dropped 1 samples	n/a	n/a	n/a	n/a	n/a	n/a	1	UoHDataOffsetStream
509.005406	0.000000	2-back	4621.945458	Steps:2 KeyPress:False Matched:True	0	2	false	true	Wrong	false	n/a	n-backMarkers
510.705551	0.000000	2-back	4623.645603	Steps:2 KeyPress:False Matched:False	1	2	false	false	Correct	false	n/a	n-backMarkers
512.406223	0.000000	2-back	4625.346274	Steps:2 KeyPress:False Matched:False	1	2	false	false	Correct	false	n/a	n-backMarkers
513.755552	0.004000	dropped_samples	4626.695604	Dropped 1 samples	n/a	n/a	n/a	n/a	n/a	n/a	1	UoHDataOffsetStream
514.106586	0.000000	2-back	4627.046638	Steps:2 KeyPress:True Matched:False	0	2	true	false	Wrong	false	n/a	n-backMarkers
515.244837	0.004000	dropped_samples	4628.184889	Dropped 1 samples	n/a	n/a	n/a	n/a	n/a	n/a	1	UoHDataOffsetStream
515.747736	0.004000	dropped_samples	4628.687788	Dropped 1 samples	n/a	n/a	n/a	n/a	n/a	n/a	1	UoHDataOffsetStream
515.807531	0.000000	2-back	4628.747583	Steps:2 KeyPress:False Matched:False	1	2	false	false	Correct	false	n/a	n-backMarkers
516.133524	0.012000	dropped_samples	4629.073576	Dropped 3 samples	n/a	n/a	n/a	n/a	n/a	n/a	3	UoHDataOffsetStream
517.507674	0.000000	2-back	4630.447725	Steps:2 KeyPress:False Matched:False	1	2	false	false	Correct	false	n/a	n-backMarkers
517.671621	0.012000	dropped_samples	4630.611673	Dropped 3 samples	n/a	n/a	n/a	n/a	n/a	n/a	3	UoHDataOffsetStream
517.910844	0.004000	dropped_samples	4630.850896	Dropped 1 samples	n/a	n/a	n/a	n/a	n/a	n/a	1	UoHDataOffsetStream
519.209431	0.000000	2-back	4632.149482	Steps:2 KeyPress:True Matched:False	0	2	true	false	Wrong	false	n/a	n-backMarkers
520.910573	0.000000	2-back	4633.850625	Steps:2 KeyPress:False Matched:True	0	2	false	true	Wrong	false	n/a	n-backMarkers
520.933587	0.004000	dropped_samples	4633.873639	Dropped 1 samples	n/a	n/a	n/a	n/a	n/a	n/a	1	UoHDataOffsetStream
522.611544	0.000000	2-back	4635.551596	Steps:2 KeyPress:True Matched:False	0	2	true	false	Wrong	false	n/a	n-backMarkers
523.189215	0.004000	dropped_samples	4636.129266	Dropped 1 samples	n/a	n/a	n/a	n/a	n/a	n/a	1	UoHDataOffsetStream
523.716543	0.004000	dropped_samples	4636.656595	Dropped 1 samples	n/a	n/a	n/a	n/a	n/a	n/a	1	UoHDataOffsetStream
524.312119	0.000000	2-back	4637.252170	Steps:2 KeyPress:False Matched:True	0	2	false	true	Wrong	false	n/a	n-backMarkers
526.013875	0.000000	2-back	4638.953926	Steps:2 KeyPress:True Matched:False	0	2	true	false	Wrong	false	n/a	n-backMarkers
526.167799	0.004000	dropped_samples	4639.107851	Dropped 1 samples	n/a	n/a	n/a	n/a	n/a	n/a	1	UoHDataOffsetStream
527.714517	0.000000	2-back	4640.654568	Steps:2 KeyPress:False Matched:False	1	2	false	false	Correct	false	n/a	n-backMarkers
529.414583	0.000000	2-back	4642.354634	Steps:2 KeyPress:False Matched:False	1	2	false	false	Correct	false	n/a	n-backMarkers
530.747787	0.004000	dropped_samples	4643.687838	Dropped 1 samples	n/a	n/a	n/a	n/a	n/a	n/a	1	UoHDataOffsetStream
531.115488	0.000000	2-back	4644.055539	Steps:2 KeyPress:False Matched:False	1	2	false	false	Correct	false	n/a	n-backMarkers
531.231194	0.012000	dropped_samples	4644.171245	Dropped 3 samples	n/a	n/a	n/a	n/a	n/a	n/a	3	UoHDataOffsetStream
531.397172	0.004000	dropped_samples	4644.337224	Dropped 1 samples	n/a	n/a	n/a	n/a	n/a	n/a	1	UoHDataOffsetStream
532.285882	0.012000	dropped_samples	4645.225934	Dropped 3 samples	n/a	n/a	n/a	n/a	n/a	n/a	3	UoHDataOffsetStream
532.816499	0.000000	2-back	4645.756550	Steps:2 KeyPress:False Matched:False	1	2	false	false	Correct	false	n/a	n-backMarkers
534.516722	0.000000	2-back	4647.456773	Steps:2 KeyPress:False Matched:False	1	2	false	false	Correct	false	n/a	n-backMarkers
535.767287	0.012000	dropped_samples	4648.707339	Dropped 3 samples	n/a	n/a	n/a	n/a	n/a	n/a	3	UoHDataOffsetStream
536.218357	0.000000	2-back	4649.158409	Steps:2 KeyPress:True Matched:False	0	2	true	false	Wrong	false	n/a	n-backMarkers
537.919050	0.000000	2-back	4650.859101	Steps:2 KeyPress:False Matched:True	0	2	false	true	Wrong	false	n/a	n-backMarkers
539.556376	0.004000	dropped_samples	4652.496428	Dropped 1 samples	n/a	n/a	n/a	n/a	n/a	n/a	1	UoHDataOffsetStream
539.620134	0.000000	2-back	4652.560186	Steps:2 KeyPress:False Matched:False	1	2	false	false	Correct	false	n/a	n-backMarkers
541.094460	0.004000	dropped_samples	4654.034511	Dropped 1 samples	n/a	n/a	n/a	n/a	n/a	n/a	1	UoHDataOffsetStream
541.321072	0.000000	2-back	4654.261124	Steps:2 KeyPress:False Matched:False	1	2	false	false	Correct	false	n/a	n-backMarkers
543.021571	0.000000	2-back	4655.961622	Steps:2 KeyPress:True Matched:False	0	2	true	false	Wrong	false	n/a	n-backMarkers
544.165736	0.004000	dropped_samples	4657.105788	Dropped 1 samples	n/a	n/a	n/a	n/a	n/a	n/a	1	UoHDataOffsetStream
544.723266	0.000000	2-back	4657.663317	Steps:2 KeyPress:False Matched:True	0	2	false	true	Wrong	false	n/a	n-backMarkers
545.630627	0.004000	dropped_samples	4658.570679	Dropped 1 samples	n/a	n/a	n/a	n/a	n/a	n/a	1	UoHDataOffsetStream
546.424395	0.000000	2-back	4659.364446	Steps:2 KeyPress:False Matched:False	1	2	false	false	Correct	false	n/a	n-backMarkers
546.514420	0.004000	dropped_samples	4659.454472	Dropped 1 samples	n/a	n/a	n/a	n/a	n/a	n/a	1	UoHDataOffsetStream
548.124643	0.000000	2-back	4661.064694	Steps:2 KeyPress:False Matched:False	1	2	false	false	Correct	false	n/a	n-backMarkers
549.825916	0.000000	2-back	4662.765967	Steps:2 KeyPress:True Matched:False	0	2	true	false	Wrong	false	n/a	n-backMarkers
551.527358	0.000000	2-back	4664.467410	Steps:2 KeyPress:False Matched:False	1	2	false	false	Correct	false	n/a	n-backMarkers
551.963632	0.004000	dropped_samples	4664.903684	Dropped 1 samples	n/a	n/a	n/a	n/a	n/a	n/a	1	UoHDataOffsetStream
553.228468	0.000000	2-back	4666.168520	Steps:2 KeyPress:False Matched:False	1	2	false	false	Correct	false	n/a	n-backMarkers
554.531977	0.012000	dropped_samples	4667.472028	Dropped 3 samples	n/a	n/a	n/a	n/a	n/a	n/a	3	UoHDataOffsetStream
554.930389	0.000000	2-back	4667.870441	Steps:2 KeyPress:True Matched:False	0	2	true	false	Wrong	false	n/a	n-backMarkers
556.630572	0.000000	2-back	4669.570624	Steps:2 KeyPress:False Matched:False	1	2	false	false	Correct	false	n/a	n-backMarkers
557.510521	0.012000	dropped_samples	4670.450572	Dropped 3 samples	n/a	n/a	n/a	n/a	n/a	n/a	3	UoHDataOffsetStream
558.331681	0.000000	2-back	4671.271733	Steps:2 KeyPress:False Matched:False	1	2	false	false	Correct	false	n/a	n-backMarkers
559.864030	0.004000	dropped_samples	4672.804082	Dropped 1 samples	n/a	n/a	n/a	n/a	n/a	n/a	1	UoHDataOffsetStream
560.032528	0.000000	2-back	4672.972579	Steps:2 KeyPress:True Matched:False	0	2	true	false	Wrong	false	n/a	n-backMarkers
561.733556	0.000000	2-back	4674.673607	Steps:2 KeyPress:False Matched:True	0	2	false	true	Wrong	false	n/a	n-backMarkers
562.549615	0.004000	dropped_samples	4675.489667	Dropped 1 samples	n/a	n/a	n/a	n/a	n/a	n/a	1	UoHDataOffsetStream
563.434975	0.000000	2-back	4676.375026	Steps:2 KeyPress:False Matched:False	1	2	false	false	Correct	false	n/a	n-backMarkers
565.135721	0.000000	2-back	4678.075772	Steps:2 KeyPress:False Matched:False	1	2	false	false	Correct	false	n/a	n-backMarkers
565.259492	0.008000	dropped_samples	4678.199543	Dropped 2 samples	n/a	n/a	n/a	n/a	n/a	n/a	2	UoHDataOffsetStream
565.982224	0.012000	dropped_samples	4678.922275	Dropped 3 samples	n/a	n/a	n/a	n/a	n/a	n/a	3	UoHDataOffsetStream
566.319160	0.004000	dropped_samples	4679.259211	Dropped 1 samples	n/a	n/a	n/a	n/a	n/a	n/a	1	UoHDataOffsetStream
566.837464	0.000000	2-back	4679.777516	Steps:2 KeyPress:True Matched:False	0	2	true	false	Wrong	false	n/a	n-backMarkers
567.207787	0.004000	dropped_samples	4680.147838	Dropped 1 samples	n/a	n/a	n/a	n/a	n/a	n/a	1	UoHDataOffsetStream
568.538102	0.000000	2-back	4681.478154	Steps:2 KeyPress:False Matched:False	1	2	false	false	Correct	false	n/a	n-backMarkers
569.678498	0.004000	dropped_samples	4682.618549	Dropped 1 samples	n/a	n/a	n/a	n/a	n/a	n/a	1	UoHDataOffsetStream
570.238423	0.000000	2-back	4683.178475	Steps:2 KeyPress:False Matched:False	1	2	false	false	Correct	false	n/a	n-backMarkers
571.939461	0.000000	2-back	4684.879512	Steps:2 KeyPress:True Matched:False	0	2	true	false	Wrong	false	n/a	n-backMarkers
573.640174	0.000000	2-back	4686.580225	Steps:2 KeyPress:False Matched:True	0	2	false	true	Wrong	false	n/a	n-backMarkers
575.341119	0.000000	2-back	4688.281171	Steps:2 KeyPress:False Matched:False	1	2	false	false	Correct	false	n/a	n-backMarkers
577.041812	0.000000	2-back	4689.981864	Steps:2 KeyPress:False Matched:True	0	2	false	true	Wrong	false	n/a	n-backMarkers
577.959786	0.004000	dropped_samples	4690.899838	Dropped 1 samples	n/a	n/a	n/a	n/a	n/a	n/a	1	UoHDataOffsetStream
578.743370	0.000000	2-back	4691.683421	Steps:2 KeyPress:False Matched:False	1	2	false	false	Correct	false	n/a	n-backMarkers
579.707810	0.004000	dropped_samples	4692.647862	Dropped 1 samples	n/a	n/a	n/a	n/a	n/a	n/a	1	UoHDataOffsetStream
580.444158	0.000000	2-back	4693.384209	Steps:2 KeyPress:False Matched:False	1	2	false	false	Correct	false	n/a	n-backMarkers
581.724426	0.004000	dropped_samples	4694.664477	Dropped 1 samples	n/a	n/a	n/a	n/a	n/a	n/a	1	UoHDataOffsetStream
582.145327	0.000000	2-back	4695.085378	Steps:2 KeyPress:True Matched:False	0	2	true	false	Wrong	false	n/a	n-backMarkers
583.238069	0.004000	dropped_samples	4696.178120	Dropped 1 samples	n/a	n/a	n/a	n/a	n/a	n/a	1	UoHDataOffsetStream
583.845368	0.000000	2-back	4696.785420	Steps:2 KeyPress:False Matched:False	1	2	false	false	Correct	false	n/a	n-backMarkers
585.545551	0.000000	2-back	4698.485602	Steps:2 KeyPress:False Matched:False	1	2	false	false	Correct	false	n/a	n-backMarkers
586.719518	0.004000	dropped_samples	4699.659569	Dropped 1 samples	n/a	n/a	n/a	n/a	n/a	n/a	1	UoHDataOffsetStream
587.246297	0.000000	2-back	4700.186349	Steps:2 KeyPress:False Matched:False	1	2	false	false	Correct	false	n/a	n-backMarkers
588.947325	0.000000	2-back	4701.887377	Steps:2 KeyPress:False Matched:False	1	2	false	false	Correct	false	n/a	n-backMarkers
589.932427	0.004000	dropped_samples	4702.872479	Dropped 1 samples	n/a	n/a	n/a	n/a	n/a	n/a	1	UoHDataOffsetStream
590.647950	0.000000	2-back	4703.588002	Steps:2 KeyPress:False Matched:False	1	2	false	false	Correct	false	n/a	n-backMarkers
592.348382	0.000000	2-back	4705.288433	Steps:2 KeyPress:True Matched:False	0	2	true	false	Wrong	false	n/a	n-backMarkers
592.862112	0.004000	dropped_samples	4705.802163	Dropped 1 samples	n/a	n/a	n/a	n/a	n/a	n/a	1	UoHDataOffsetStream
593.799641	0.004000	dropped_samples	4706.739692	Dropped 1 samples	n/a	n/a	n/a	n/a	n/a	n/a	1	UoHDataOffsetStream
594.048430	0.000000	2-back	4706.988482	Steps:2 KeyPress:False Matched:True	0	2	false	true	Wrong	false	n/a	n-backMarkers
595.748716	0.000000	2-back	4708.688768	Steps:2 KeyPress:False Matched:False	1	2	false	false	Correct	false	n/a	n-backMarkers
597.450452	0.000000	2-back	4710.390504	Steps:2 KeyPress:False Matched:True	0	2	false	true	Wrong	false	n/a	n-backMarkers
599.004700	0.004000	dropped_samples	4711.944751	Dropped 1 samples	n/a	n/a	n/a	n/a	n/a	n/a	1	UoHDataOffsetStream
599.151298	0.000000	2-back	4712.091349	Steps:2 KeyPress:False Matched:False	1	2	false	false	Correct	false	n/a	n-backMarkers
600.852437	0.000000	2-back	4713.792488	Steps:2 KeyPress:False Matched:False	1	2	false	false	Correct	false	n/a	n-backMarkers
602.552915	0.000000	2-back	4715.492966	Steps:2 KeyPress:False Matched:False	1	2	false	false	Correct	false	n/a	n-backMarkers
603.736145	0.004000	dropped_samples	4716.676197	Dropped 1 samples	n/a	n/a	n/a	n/a	n/a	n/a	1	UoHDataOffsetStream
604.254305	0.000000	2-back	4717.194357	Steps:2 KeyPress:False Matched:False	1	2	false	false	Correct	false	n/a	n-backMarkers
604.527168	0.004000	dropped_samples	4717.467219	Dropped 1 samples	n/a	n/a	n/a	n/a	n/a	n/a	1	UoHDataOffsetStream
605.955225	0.000000	2-back	4718.895276	Steps:2 KeyPress:False Matched:True	0	2	false	true	Wrong	false	n/a	n-backMarkers
607.656394	0.000000	2-back	4720.596446	Steps:2 KeyPress:True Matched:False	0	2	true	false	Wrong	false	n/a	n-backMarkers
609.204890	0.004000	dropped_samples	4722.144941	Dropped 1 samples	n/a	n/a	n/a	n/a	n/a	n/a	1	UoHDataOffsetStream
609.357644	0.000000	2-back	4722.297696	Steps:2 KeyPress:False Matched:False	1	2	false	false	Correct	false	n/a	n-backMarkers
610.528158	0.012000	dropped_samples	4723.468209	Dropped 3 samples	n/a	n/a	n/a	n/a	n/a	n/a	3	UoHDataOffsetStream
611.058339	0.000000	2-back	4723.998390	Steps:2 KeyPress:False Matched:False	1	2	false	false	Correct	false	n/a	n-backMarkers
611.245922	0.004000	dropped_samples	4724.185973	Dropped 1 samples	n/a	n/a	n/a	n/a	n/a	n/a	1	UoHDataOffsetStream
611.822103	0.004000	dropped_samples	4724.762155	Dropped 1 samples	n/a	n/a	n/a	n/a	n/a	n/a	1	UoHDataOffsetStream
612.661938	0.004000	dropped_samples	4725.601990	Dropped 1 samples	n/a	n/a	n/a	n/a	n/a	n/a	1	UoHDataOffsetStream
612.759347	0.000000	2-back	4725.699399	Steps:2 KeyPress:False Matched:False	1	2	false	false	Correct	false	n/a	n-backMarkers
614.459442	0.000000	2-back	4727.399493	Steps:2 KeyPress:True Matched:False	0	2	true	false	Wrong	false	n/a	n-backMarkers
616.160304	0.000000	2-back	4729.100356	Steps:2 KeyPress:False Matched:False	1	2	false	false	Correct	false	n/a	n-backMarkers
616.216654	0.004000	dropped_samples	4729.156706	Dropped 1 samples	n/a	n/a	n/a	n/a	n/a	n/a	1	UoHDataOffsetStream
617.860475	0.000000	2-back	4730.800527	Steps:2 KeyPress:False Matched:False	1	2	false	false	Correct	false	n/a	n-backMarkers
619.561071	0.000000	2-back	4732.501122	Steps:2 KeyPress:False Matched:False	1	2	false	false	Correct	false	n/a	n-backMarkers
621.262335	0.000000	2-back	4734.202387	Steps:2 KeyPress:False Matched:False	1	2	false	false	Correct	false	n/a	n-backMarkers
621.324074	0.004000	dropped_samples	4734.264125	Dropped 1 samples	n/a	n/a	n/a	n/a	n/a	n/a	1	UoHDataOffsetStream
622.963442	0.000000	2-back	4735.903494	Steps:2 KeyPress:False Matched:False	1	2	false	false	Correct	false	n/a	n-backMarkers
624.665234	0.000000	2-back	4737.605285	Steps:2 KeyPress:False Matched:True	0	2	false	true	Wrong	false	n/a	n-backMarkers
625.596580	0.012000	dropped_samples	4738.536631	Dropped 3 samples	n/a	n/a	n/a	n/a	n/a	n/a	3	UoHDataOffsetStream
626.366293	0.000000	2-back	4739.306345	Steps:2 KeyPress:False Matched:False	1	2	false	false	Correct	false	n/a	n-backMarkers
627.159180	0.004000	dropped_samples	4740.099232	Dropped 1 samples	n/a	n/a	n/a	n/a	n/a	n/a	1	UoHDataOffsetStream
627.950034	0.004000	dropped_samples	4740.890085	Dropped 1 samples	n/a	n/a	n/a	n/a	n/a	n/a	1	UoHDataOffsetStream
633.804579	0.004000	dropped_samples	4746.744630	Dropped 1 samples	n/a	n/a	n/a	n/a	n/a	n/a	1	UoHDataOffsetStream
635.059849	0.000000	3-back	4747.999900	Steps:3 KeyPress:False Matched:False	1	3	false	false	Correct	false	n/a	n-backMarkers
635.220539	0.004000	dropped_samples	4748.160590	Dropped 1 samples	n/a	n/a	n/a	n/a	n/a	n/a	1	UoHDataOffsetStream
636.760277	0.000000	3-back	4749.700328	Steps:3 KeyPress:False Matched:False	1	3	false	false	Correct	false	n/a	n-backMarkers
637.119967	0.004000	dropped_samples	4750.060019	Dropped 1 samples	n/a	n/a	n/a	n/a	n/a	n/a	1	UoHDataOffsetStream
638.316300	0.012000	dropped_samples	4751.256352	Dropped 3 samples	n/a	n/a	n/a	n/a	n/a	n/a	3	UoHDataOffsetStream
638.460336	0.000000	3-back	4751.400388	Steps:3 KeyPress:False Matched:False	1	3	false	false	Correct	false	n/a	n-backMarkers
638.965711	0.004000	dropped_samples	4751.905762	Dropped 1 samples	n/a	n/a	n/a	n/a	n/a	n/a	1	UoHDataOffsetStream
639.517454	0.008000	dropped_samples	4752.457506	Dropped 2 samples	n/a	n/a	n/a	n/a	n/a	n/a	2	UoHDataOffsetStream
640.161307	0.000000	3-back	4753.101359	Steps:3 KeyPress:False Matched:False	1	3	false	false	Correct	false	n/a	n-backMarkers
641.582931	0.012000	dropped_samples	4754.522982	Dropped 3 samples	n/a	n/a	n/a	n/a	n/a	n/a	3	UoHDataOffsetStream
641.862304	0.000000	3-back	4754.802355	Steps:3 KeyPress:True Matched:False	0	3	true	false	Wrong	false	n/a	n-backMarkers
642.471561	0.004000	dropped_samples	4755.411612	Dropped 1 samples	n/a	n/a	n/a	n/a	n/a	n/a	1	UoHDataOffsetStream
643.563744	0.000000	3-back	4756.503795	Steps:3 KeyPress:True Matched:False	0	3	true	false	Wrong	false	n/a	n-backMarkers
643.584367	0.004000	dropped_samples	4756.524418	Dropped 1 samples	n/a	n/a	n/a	n/a	n/a	n/a	1	UoHDataOffsetStream
643.623948	0.012000	dropped_samples	4756.563999	Dropped 3 samples	n/a	n/a	n/a	n/a	n/a	n/a	3	UoHDataOffsetStream
644.053553	0.016000	dropped_samples	4756.993605	Dropped 4 samples	n/a	n/a	n/a	n/a	n/a	n/a	4	UoHDataOffsetStream
645.264441	0.000000	3-back	4758.204493	Steps:3 KeyPress:False Matched:False	1	3	false	false	Correct	false	n/a	n-backMarkers
646.965689	0.000000	3-back	4759.905741	Steps:3 KeyPress:False Matched:False	1	3	false	false	Correct	false	n/a	n-backMarkers
647.056545	0.012000	dropped_samples	4759.996596	Dropped 3 samples	n/a	n/a	n/a	n/a	n/a	n/a	3	UoHDataOffsetStream
647.676695	0.004000	dropped_samples	4760.616747	Dropped 1 samples	n/a	n/a	n/a	n/a	n/a	n/a	1	UoHDataOffsetStream
648.667160	0.000000	3-back	4761.607212	Steps:3 KeyPress:False Matched:False	1	3	false	false	Correct	false	n/a	n-backMarkers
650.367262	0.000000	3-back	4763.307313	Steps:3 KeyPress:True Matched:False	0	3	true	false	Wrong	false	n/a	n-backMarkers
652.068344	0.000000	3-back	4765.008395	Steps:3 KeyPress:False Matched:False	1	3	false	false	Correct	false	n/a	n-backMarkers
652.813371	0.004000	dropped_samples	4765.753422	Dropped 1 samples	n/a	n/a	n/a	n/a	n/a	n/a	1	UoHDataOffsetStream
653.174661	0.012000	dropped_samples	4766.114712	Dropped 3 samples	n/a	n/a	n/a	n/a	n/a	n/a	3	UoHDataOffsetStream
653.770141	0.000000	3-back	4766.710193	Steps:3 KeyPress:False Matched:False	1	3	false	false	Correct	false	n/a	n-backMarkers
655.471171	0.000000	3-back	4768.411223	Steps:3 KeyPress:False Matched:False	1	3	false	false	Correct	false	n/a	n-backMarkers
657.172145	0.000000	3-back	4770.112197	Steps:3 KeyPress:True Matched:False	0	3	true	false	Wrong	false	n/a	n-backMarkers
658.023329	0.004000	dropped_samples	4770.963380	Dropped 1 samples	n/a	n/a	n/a	n/a	n/a	n/a	1	UoHDataOffsetStream
658.872354	0.000000	3-back	4771.812405	Steps:3 KeyPress:False Matched:True	0	3	false	true	Wrong	false	n/a	n-backMarkers
660.401270	0.004000	dropped_samples	4773.341322	Dropped 1 samples	n/a	n/a	n/a	n/a	n/a	n/a	1	UoHDataOffsetStream
660.574197	0.000000	3-back	4773.514248	Steps:3 KeyPress:False Matched:False	1	3	false	false	Correct	false	n/a	n-backMarkers
662.274594	0.000000	3-back	4775.214645	Steps:3 KeyPress:True Matched:False	0	3	true	false	Wrong	false	n/a	n-backMarkers
663.038940	0.004000	dropped_samples	4775.978992	Dropped 1 samples	n/a	n/a	n/a	n/a	n/a	n/a	1	UoHDataOffsetStream
663.638579	0.012000	dropped_samples	4776.578630	Dropped 3 samples	n/a	n/a	n/a	n/a	n/a	n/a	3	UoHDataOffsetStream
663.975251	0.000000	3-back	4776.915303	Steps:3 KeyPress:False Matched:True	0	3	false	true	Wrong	false	n/a	n-backMarkers
665.103415	0.008000	dropped_samples	4778.043466	Dropped 2 samples	n/a	n/a	n/a	n/a	n/a	n/a	2	UoHDataOffsetStream
665.675318	0.000000	3-back	4778.615369	Steps:3 KeyPress:False Matched:False	1	3	false	false	Correct	false	n/a	n-backMarkers
666.905189	0.012000	dropped_samples	4779.845240	Dropped 3 samples	n/a	n/a	n/a	n/a	n/a	n/a	3	UoHDataOffsetStream
667.377160	0.000000	3-back	4780.317211	Steps:3 KeyPress:False Matched:False	1	3	false	false	Correct	false	n/a	n-backMarkers
669.078336	0.000000	3-back	4782.018388	Steps:3 KeyPress:True Matched:False	0	3	true	false	Wrong	false	n/a	n-backMarkers
670.779244	0.000000	3-back	4783.719296	Steps:3 KeyPress:False Matched:False	1	3	false	false	Correct	false	n/a	n-backMarkers
672.480213	0.000000	3-back	4785.420264	Steps:3 KeyPress:False Matched:False	1	3	false	false	Correct	false	n/a	n-backMarkers
674.181106	0.000000	3-back	4787.121157	Steps:3 KeyPress:False Matched:False	1	3	false	false	Correct	false	n/a	n-backMarkers
675.882240	0.000000	3-back	4788.822292	Steps:3 KeyPress:False Matched:True	0	3	false	true	Wrong	false	n/a	n-backMarkers
676.021418	0.012000	dropped_samples	4788.961469	Dropped 3 samples	n/a	n/a	n/a	n/a	n/a	n/a	3	UoHDataOffsetStream
677.583230	0.000000	3-back	4790.523282	Steps:3 KeyPress:True Matched:False	0	3	true	false	Wrong	false	n/a	n-backMarkers
679.214728	0.004000	dropped_samples	4792.154780	Dropped 1 samples	n/a	n/a	n/a	n/a	n/a	n/a	1	UoHDataOffsetStream
679.283589	0.000000	3-back	4792.223641	Steps:3 KeyPress:False Matched:False	1	3	false	false	Correct	false	n/a	n-backMarkers
679.937404	0.004000	dropped_samples	4792.877455	Dropped 1 samples	n/a	n/a	n/a	n/a	n/a	n/a	1	UoHDataOffsetStream
680.245058	0.004000	dropped_samples	4793.185109	Dropped 1 samples	n/a	n/a	n/a	n/a	n/a	n/a	1	UoHDataOffsetStream
680.985562	0.000000	3-back	4793.925613	Steps:3 KeyPress:False Matched:True	0	3	false	true	Wrong	false	n/a	n-backMarkers
682.686248	0.000000	3-back	4795.626300	Steps:3 KeyPress:False Matched:False	1	3	false	false	Correct	false	n/a	n-backMarkers
684.386743	0.000000	3-back	4797.326795	Steps:3 KeyPress:False Matched:False	1	3	false	false	Correct	false	n/a	n-backMarkers
685.454948	0.004000	dropped_samples	4798.394999	Dropped 1 samples	n/a	n/a	n/a	n/a	n/a	n/a	1	UoHDataOffsetStream
686.087183	0.000000	3-back	4799.027234	Steps:3 KeyPress:False Matched:False	1	3	false	false	Correct	false	n/a	n-backMarkers
686.896469	0.004000	dropped_samples	4799.836520	Dropped 1 samples	n/a	n/a	n/a	n/a	n/a	n/a	1	UoHDataOffsetStream
687.788266	0.000000	3-back	4800.728317	Steps:3 KeyPress:True Matched:False	0	3	true	false	Wrong	false	n/a	n-backMarkers
689.224550	0.004000	dropped_samples	4802.164601	Dropped 1 samples	n/a	n/a	n/a	n/a	n/a	n/a	1	UoHDataOffsetStream
689.489356	0.000000	3-back	4802.429408	Steps:3 KeyPress:False Matched:False	1	3	false	false	Correct	false	n/a	n-backMarkers
691.189782	0.000000	3-back	4804.129833	Steps:3 KeyPress:False Matched:True	0	3	false	true	Wrong	false	n/a	n-backMarkers
692.173771	0.004000	dropped_samples	4805.113823	Dropped 1 samples	n/a	n/a	n/a	n/a	n/a	n/a	1	UoHDataOffsetStream
692.344672	0.004000	dropped_samples	4805.284723	Dropped 1 samples	n/a	n/a	n/a	n/a	n/a	n/a	1	UoHDataOffsetStream
692.890923	0.000000	3-back	4805.830975	Steps:3 KeyPress:False Matched:False	1	3	false	false	Correct	false	n/a	n-backMarkers
693.111267	0.004000	dropped_samples	4806.051319	Dropped 1 samples	n/a	n/a	n/a	n/a	n/a	n/a	1	UoHDataOffsetStream
694.592226	0.000000	3-back	4807.532278	Steps:3 KeyPress:False Matched:False	1	3	false	false	Correct	false	n/a	n-backMarkers
695.845642	0.004000	dropped_samples	4808.785693	Dropped 1 samples	n/a	n/a	n/a	n/a	n/a	n/a	1	UoHDataOffsetStream
696.293158	0.000000	3-back	4809.233209	Steps:3 KeyPress:False Matched:False	1	3	false	false	Correct	false	n/a	n-backMarkers
697.993574	0.000000	3-back	4810.933626	Steps:3 KeyPress:False Matched:False	1	3	false	false	Correct	false	n/a	n-backMarkers
699.695199	0.000000	3-back	4812.635251	Steps:3 KeyPress:False Matched:False	1	3	false	false	Correct	false	n/a	n-backMarkers
700.240174	0.004000	dropped_samples	4813.180226	Dropped 1 samples	n/a	n/a	n/a	n/a	n/a	n/a	1	UoHDataOffsetStream
700.381786	0.004000	dropped_samples	4813.321838	Dropped 1 samples	n/a	n/a	n/a	n/a	n/a	n/a	1	UoHDataOffsetStream
701.396310	0.000000	3-back	4814.336361	Steps:3 KeyPress:True Matched:False	0	3	true	false	Wrong	false	n/a	n-backMarkers
702.256782	0.012000	dropped_samples	4815.196833	Dropped 3 samples	n/a	n/a	n/a	n/a	n/a	n/a	3	UoHDataOffsetStream
703.098208	0.000000	3-back	4816.038259	Steps:3 KeyPress:False Matched:True	0	3	false	true	Wrong	false	n/a	n-backMarkers
704.799181	0.000000	3-back	4817.739232	Steps:3 KeyPress:False Matched:False	1	3	false	false	Correct	false	n/a	n-backMarkers
706.500857	0.000000	3-back	4819.440908	Steps:3 KeyPress:False Matched:False	1	3	false	false	Correct	false	n/a	n-backMarkers
708.202082	0.000000	3-back	4821.142134	Steps:3 KeyPress:False Matched:False	1	3	false	false	Correct	false	n/a	n-backMarkers
709.312419	0.004000	dropped_samples	4822.252471	Dropped 1 samples	n/a	n/a	n/a	n/a	n/a	n/a	1	UoHDataOffsetStream
709.903217	0.000000	3-back	4822.843268	Steps:3 KeyPress:True Matched:False	0	3	true	false	Wrong	false	n/a	n-backMarkers
711.604515	0.000000	3-back	4824.544566	Steps:3 KeyPress:False Matched:False	1	3	false	false	Correct	false	n/a	n-backMarkers
713.304616	0.000000	3-back	4826.244667	Steps:3 KeyPress:False Matched:False	1	3	false	false	Correct	false	n/a	n-backMarkers
713.775386	0.004000	dropped_samples	4826.715437	Dropped 1 samples	n/a	n/a	n/a	n/a	n/a	n/a	1	UoHDataOffsetStream
714.253872	0.012000	dropped_samples	4827.193924	Dropped 3 samples	n/a	n/a	n/a	n/a	n/a	n/a	3	UoHDataOffsetStream
715.006146	0.000000	3-back	4827.946197	Steps:3 KeyPress:False Matched:False	1	3	false	false	Correct	false	n/a	n-backMarkers
716.631788	0.008000	dropped_samples	4829.571840	Dropped 2 samples	n/a	n/a	n/a	n/a	n/a	n/a	2	UoHDataOffsetStream
716.707156	0.000000	3-back	4829.647207	Steps:3 KeyPress:False Matched:False	1	3	false	false	Correct	false	n/a	n-backMarkers
718.408146	0.000000	3-back	4831.348198	Steps:3 KeyPress:False Matched:False	1	3	false	false	Correct	false	n/a	n-backMarkers
720.109020	0.000000	3-back	4833.049071	Steps:3 KeyPress:False Matched:False	1	3	false	false	Correct	false	n/a	n-backMarkers
721.265551	0.004000	dropped_samples	4834.205603	Dropped 1 samples	n/a	n/a	n/a	n/a	n/a	n/a	1	UoHDataOffsetStream
721.809753	0.000000	3-back	4834.749804	Steps:3 KeyPress:False Matched:False	1	3	false	false	Correct	false	n/a	n-backMarkers
723.472650	0.008000	dropped_samples	4836.412701	Dropped 2 samples	n/a	n/a	n/a	n/a	n/a	n/a	2	UoHDataOffsetStream
723.510244	0.000000	3-back	4836.450296	Steps:3 KeyPress:True Matched:False	0	3	true	false	Wrong	false	n/a	n-backMarkers
725.211281	0.000000	3-back	4838.151332	Steps:3 KeyPress:False Matched:True	0	3	false	true	Wrong	false	n/a	n-backMarkers
726.065383	0.012000	dropped_samples	4839.005435	Dropped 3 samples	n/a	n/a	n/a	n/a	n/a	n/a	3	UoHDataOffsetStream
726.911354	0.000000	3-back	4839.851406	Steps:3 KeyPress:False Matched:False	1	3	false	false	Correct	false	n/a	n-backMarkers
728.612164	0.000000	3-back	4841.552216	Steps:3 KeyPress:False Matched:False	1	3	false	false	Correct	false	n/a	n-backMarkers
730.313004	0.000000	3-back	4843.253056	Steps:3 KeyPress:False Matched:False	1	3	false	false	Correct	false	n/a	n-backMarkers
732.014262	0.000000	3-back	4844.954314	Steps:3 KeyPress:False Matched:False	1	3	false	false	Correct	false	n/a	n-backMarkers
732.569317	0.004000	dropped_samples	4845.509368	Dropped 1 samples	n/a	n/a	n/a	n/a	n/a	n/a	1	UoHDataOffsetStream
733.335935	0.008000	dropped_samples	4846.275986	Dropped 2 samples	n/a	n/a	n/a	n/a	n/a	n/a	2	UoHDataOffsetStream
733.714716	0.000000	3-back	4846.654768	Steps:3 KeyPress:False Matched:False	1	3	false	false	Correct	false	n/a	n-backMarkers
734.585922	0.004000	dropped_samples	4847.525973	Dropped 1 samples	n/a	n/a	n/a	n/a	n/a	n/a	1	UoHDataOffsetStream
735.416156	0.000000	3-back	4848.356208	Steps:3 KeyPress:False Matched:False	1	3	false	false	Correct	false	n/a	n-backMarkers
737.117976	0.000000	3-back	4850.058028	Steps:3 KeyPress:False Matched:False	1	3	false	false	Correct	false	n/a	n-backMarkers
738.818592	0.000000	3-back	4851.758643	Steps:3 KeyPress:True Matched:False	0	3	true	false	Wrong	false	n/a	n-backMarkers
740.519112	0.000000	3-back	4853.459163	Steps:3 KeyPress:False Matched:True	0	3	false	true	Wrong	false	n/a	n-backMarkers
741.377937	0.004000	dropped_samples	4854.317988	Dropped 1 samples	n/a	n/a	n/a	n/a	n/a	n/a	1	UoHDataOffsetStream
742.220844	0.000000	3-back	4855.160895	Steps:3 KeyPress:False Matched:False	1	3	false	false	Correct	false	n/a	n-backMarkers
743.922109	0.000000	3-back	4856.862160	Steps:3 KeyPress:False Matched:False	1	3	false	false	Correct	false	n/a	n-backMarkers
745.000994	0.004000	dropped_samples	4857.941046	Dropped 1 samples	n/a	n/a	n/a	n/a	n/a	n/a	1	UoHDataOffsetStream
745.623175	0.000000	3-back	4858.563227	Steps:3 KeyPress:False Matched:False	1	3	false	false	Correct	false	n/a	n-backMarkers
746.202363	0.012000	dropped_samples	4859.142414	Dropped 3 samples	n/a	n/a	n/a	n/a	n/a	n/a	3	UoHDataOffsetStream
747.324047	0.000000	3-back	4860.264098	Steps:3 KeyPress:False Matched:False	1	3	false	false	Correct	false	n/a	n-backMarkers
749.025471	0.000000	3-back	4861.965522	Steps:3 KeyPress:False Matched:True	0	3	false	true	Wrong	false	n/a	n-backMarkers
749.616569	0.016000	dropped_samples	4862.556620	Dropped 4 samples	n/a	n/a	n/a	n/a	n/a	n/a	4	UoHDataOffsetStream
750.665067	0.004000	dropped_samples	4863.605118	Dropped 1 samples	n/a	n/a	n/a	n/a	n/a	n/a	1	UoHDataOffsetStream
750.726655	0.000000	3-back	4863.666706	Steps:3 KeyPress:False Matched:False	1	3	false	false	Correct	false	n/a	n-backMarkers
751.622122	0.008000	dropped_samples	4864.562173	Dropped 2 samples	n/a	n/a	n/a	n/a	n/a	n/a	2	UoHDataOffsetStream
752.427940	0.000000	3-back	4865.367991	Steps:3 KeyPress:False Matched:False	1	3	false	false	Correct	false	n/a	n-backMarkers
754.128367	0.000000	3-back	4867.068419	Steps:3 KeyPress:False Matched:False	1	3	false	false	Correct	false	n/a	n-backMarkers
754.214866	0.012000	dropped_samples	4867.154918	Dropped 3 samples	n/a	n/a	n/a	n/a	n/a	n/a	3	UoHDataOffsetStream
755.829027	0.000000	3-back	4868.769079	Steps:3 KeyPress:False Matched:False	1	3	false	false	Correct	false	n/a	n-backMarkers
755.870137	0.004000	dropped_samples	4868.810188	Dropped 1 samples	n/a	n/a	n/a	n/a	n/a	n/a	1	UoHDataOffsetStream
757.530037	0.000000	3-back	4870.470088	Steps:3 KeyPress:False Matched:False	1	3	false	false	Correct	false	n/a	n-backMarkers
759.231067	0.000000	3-back	4872.171118	Steps:3 KeyPress:False Matched:False	1	3	false	false	Correct	false	n/a	n-backMarkers
759.590797	0.004000	dropped_samples	4872.530848	Dropped 1 samples	n/a	n/a	n/a	n/a	n/a	n/a	1	UoHDataOffsetStream
759.903333	0.012000	dropped_samples	4872.843385	Dropped 3 samples	n/a	n/a	n/a	n/a	n/a	n/a	3	UoHDataOffsetStream
760.932016	0.000000	3-back	4873.872067	Steps:3 KeyPress:True Matched:True	1	3	true	true	Correct	false	n/a	n-backMarkers
761.490430	0.012000	dropped_samples	4874.430481	Dropped 3 samples	n/a	n/a	n/a	n/a	n/a	n/a	3	UoHDataOffsetStream
762.633905	0.000000	3-back	4875.573956	Steps:3 KeyPress:False Matched:False	1	3	false	false	Correct	false	n/a	n-backMarkers
764.334795	0.000000	3-back	4877.274847	Steps:3 KeyPress:False Matched:False	1	3	false	false	Correct	false	n/a	n-backMarkers
765.855518	0.004000	dropped_samples	4878.795569	Dropped 1 samples	n/a	n/a	n/a	n/a	n/a	n/a	1	UoHDataOffsetStream
766.034952	0.000000	3-back	4878.975004	Steps:3 KeyPress:False Matched:False	1	3	false	false	Correct	false	n/a	n-backMarkers
767.632828	0.012000	dropped_samples	4880.572880	Dropped 3 samples	n/a	n/a	n/a	n/a	n/a	n/a	3	UoHDataOffsetStream
767.736577	0.000000	3-back	4880.676628	Steps:3 KeyPress:False Matched:False	1	3	false	false	Correct	false	n/a	n-backMarkers
769.437274	0.000000	3-back	4882.377325	Steps:3 KeyPress:False Matched:False	1	3	false	false	Correct	false	n/a	n-backMarkers
770.582068	0.004000	dropped_samples	4883.522120	Dropped 1 samples	n/a	n/a	n/a	n/a	n/a	n/a	1	UoHDataOffsetStream
771.138717	0.000000	3-back	4884.078769	Steps:3 KeyPress:False Matched:False	1	3	false	false	Correct	false	n/a	n-backMarkers
772.647490	0.012000	dropped_samples	4885.587541	Dropped 3 samples	n/a	n/a	n/a	n/a	n/a	n/a	3	UoHDataOffsetStream
772.840027	0.000000	3-back	4885.780078	Steps:3 KeyPress:False Matched:True	0	3	false	true	Wrong	false	n/a	n-backMarkers
772.862354	0.008000	dropped_samples	4885.802406	Dropped 2 samples	n/a	n/a	n/a	n/a	n/a	n/a	2	UoHDataOffsetStream
773.702188	0.004000	dropped_samples	4886.642239	Dropped 1 samples	n/a	n/a	n/a	n/a	n/a	n/a	1	UoHDataOffsetStream
774.540734	0.000000	3-back	4887.480785	Steps:3 KeyPress:False Matched:False	1	3	false	false	Correct	false	n/a	n-backMarkers
775.632812	0.008000	dropped_samples	4888.572864	Dropped 2 samples	n/a	n/a	n/a	n/a	n/a	n/a	2	UoHDataOffsetStream
775.865279	0.004000	dropped_samples	4888.805331	Dropped 1 samples	n/a	n/a	n/a	n/a	n/a	n/a	1	UoHDataOffsetStream
776.242005	0.000000	3-back	4889.182057	Steps:3 KeyPress:False Matched:False	1	3	false	false	Correct	false	n/a	n-backMarkers
777.943924	0.000000	3-back	4890.883975	Steps:3 KeyPress:False Matched:False	1	3	false	false	Correct	false	n/a	n-backMarkers
779.644580	0.000000	3-back	4892.584631	Steps:3 KeyPress:False Matched:False	1	3	false	false	Correct	false	n/a	n-backMarkers
781.344914	0.000000	3-back	4894.284965	Steps:3 KeyPress:False Matched:False	1	3	false	false	Correct	false	n/a	n-backMarkers
782.150359	0.004000	dropped_samples	4895.090411	Dropped 1 samples	n/a	n/a	n/a	n/a	n/a	n/a	1	UoHDataOffsetStream
783.045242	0.000000	3-back	4895.985294	Steps:3 KeyPress:True Matched:False	0	3	true	false	Wrong	false	n/a	n-backMarkers
783.354797	0.004000	dropped_samples	4896.294848	Dropped 1 samples	n/a	n/a	n/a	n/a	n/a	n/a	1	UoHDataOffsetStream
783.749380	0.004000	dropped_samples	4896.689431	Dropped 1 samples	n/a	n/a	n/a	n/a	n/a	n/a	1	UoHDataOffsetStream
783.797559	0.032000	dropped_samples	4896.737610	Dropped 8 samples	n/a	n/a	n/a	n/a	n/a	n/a	8	UoHDataOffsetStream
784.054327	0.028000	dropped_samples	4896.994378	Dropped 7 samples	n/a	n/a	n/a	n/a	n/a	n/a	7	UoHDataOffsetStream
784.746917	0.000000	3-back	4897.686969	Steps:3 KeyPress:False Matched:True	0	3	false	true	Wrong	false	n/a	n-backMarkers
784.888748	0.004000	dropped_samples	4897.828799	Dropped 1 samples	n/a	n/a	n/a	n/a	n/a	n/a	1	UoHDataOffsetStream
786.398165	0.008000	dropped_samples	4899.338217	Dropped 2 samples	n/a	n/a	n/a	n/a	n/a	n/a	2	UoHDataOffsetStream
786.447935	0.000000	3-back	4899.387987	Steps:3 KeyPress:False Matched:False	1	3	false	false	Correct	false	n/a	n-backMarkers
786.587477	0.012000	dropped_samples	4899.527528	Dropped 3 samples	n/a	n/a	n/a	n/a	n/a	n/a	3	UoHDataOffsetStream
787.334590	0.004000	dropped_samples	4900.274641	Dropped 1 samples	n/a	n/a	n/a	n/a	n/a	n/a	1	UoHDataOffsetStream
787.481458	0.004000	dropped_samples	4900.421509	Dropped 1 samples	n/a	n/a	n/a	n/a	n/a	n/a	1	UoHDataOffsetStream
788.149677	0.000000	3-back	4901.089729	Steps:3 KeyPress:False Matched:False	1	3	false	false	Correct	false	n/a	n-backMarkers
789.498110	0.004000	dropped_samples	4902.438161	Dropped 1 samples	n/a	n/a	n/a	n/a	n/a	n/a	1	UoHDataOffsetStream
789.850670	0.000000	3-back	4902.790722	Steps:3 KeyPress:False Matched:True	0	3	false	true	Wrong	false	n/a	n-backMarkers
790.718799	0.004000	dropped_samples	4903.658851	Dropped 1 samples	n/a	n/a	n/a	n/a	n/a	n/a	1	UoHDataOffsetStream
791.551002	0.000000	3-back	4904.491053	Steps:3 KeyPress:False Matched:False	1	3	false	false	Correct	false	n/a	n-backMarkers
793.253118	0.000000	3-back	4906.193169	Steps:3 KeyPress:False Matched:False	1	3	false	false	Correct	false	n/a	n-backMarkers
794.953870	0.000000	3-back	4907.893921	Steps:3 KeyPress:False Matched:False	1	3	false	false	Correct	false	n/a	n-backMarkers
796.654996	0.000000	3-back	4909.595048	Steps:3 KeyPress:False Matched:False	1	3	false	false	Correct	false	n/a	n-backMarkers
798.356094	0.000000	3-back	4911.296145	Steps:3 KeyPress:False Matched:True	0	3	false	true	Wrong	false	n/a	n-backMarkers
798.834072	0.008000	dropped_samples	4911.774124	Dropped 2 samples	n/a	n/a	n/a	n/a	n/a	n/a	2	UoHDataOffsetStream
799.000189	0.012000	dropped_samples	4911.940241	Dropped 3 samples	n/a	n/a	n/a	n/a	n/a	n/a	3	UoHDataOffsetStream
800.056867	0.000000	3-back	4912.996919	Steps:3 KeyPress:False Matched:False	1	3	false	false	Correct	false	n/a	n-backMarkers
801.758630	0.000000	3-back	4914.698681	Steps:3 KeyPress:False Matched:False	1	3	false	false	Correct	false	n/a	n-backMarkers
802.769568	0.004000	dropped_samples	4915.709620	Dropped 1 samples	n/a	n/a	n/a	n/a	n/a	n/a	1	UoHDataOffsetStream
803.459543	0.000000	3-back	4916.399595	Steps:3 KeyPress:False Matched:False	1	3	false	false	Correct	false	n/a	n-backMarkers
806.270593	0.004000	dropped_samples	4919.210644	Dropped 1 samples	n/a	n/a	n/a	n/a	n/a	n/a	1	UoHDataOffsetStream
807.354570	0.004000	dropped_samples	4920.294622	Dropped 1 samples	n/a	n/a	n/a	n/a	n/a	n/a	1	UoHDataOffsetStream
811.793081	0.004000	dropped_samples	4924.733132	Dropped 1 samples	n/a	n/a	n/a	n/a	n/a	n/a	1	UoHDataOffsetStream
812.154802	0.000000	4-back	4925.094853	Steps:4 KeyPress:False Matched:False	1	4	false	false	Correct	false	n/a	n-backMarkers
812.486377	0.008000	dropped_samples	4925.426428	Dropped 2 samples	n/a	n/a	n/a	n/a	n/a	n/a	2	UoHDataOffsetStream
813.716813	0.004000	dropped_samples	4926.656864	Dropped 1 samples	n/a	n/a	n/a	n/a	n/a	n/a	1	UoHDataOffsetStream
813.760861	0.012000	dropped_samples	4926.700913	Dropped 3 samples	n/a	n/a	n/a	n/a	n/a	n/a	3	UoHDataOffsetStream
813.855897	0.000000	4-back	4926.795948	Steps:4 KeyPress:False Matched:True	0	4	false	true	Wrong	false	n/a	n-backMarkers
815.030372	0.004000	dropped_samples	4927.970424	Dropped 1 samples	n/a	n/a	n/a	n/a	n/a	n/a	1	UoHDataOffsetStream
815.556905	0.000000	4-back	4928.496957	Steps:4 KeyPress:False Matched:False	1	4	false	false	Correct	false	n/a	n-backMarkers
817.257892	0.000000	4-back	4930.197943	Steps:4 KeyPress:False Matched:False	1	4	false	false	Correct	false	n/a	n-backMarkers
818.414158	0.004000	dropped_samples	4931.354209	Dropped 1 samples	n/a	n/a	n/a	n/a	n/a	n/a	1	UoHDataOffsetStream
818.959058	0.000000	4-back	4931.899110	Steps:4 KeyPress:False Matched:True	0	4	false	true	Wrong	false	n/a	n-backMarkers
820.661050	0.000000	4-back	4933.601102	Steps:4 KeyPress:False Matched:False	1	4	false	false	Correct	false	n/a	n-backMarkers
821.128988	0.004000	dropped_samples	4934.069040	Dropped 1 samples	n/a	n/a	n/a	n/a	n/a	n/a	1	UoHDataOffsetStream
822.361370	0.000000	4-back	4935.301421	Steps:4 KeyPress:False Matched:False	1	4	false	false	Correct	false	n/a	n-backMarkers
822.930751	0.004000	dropped_samples	4935.870802	Dropped 1 samples	n/a	n/a	n/a	n/a	n/a	n/a	1	UoHDataOffsetStream
824.061334	0.000000	4-back	4937.001385	Steps:4 KeyPress:False Matched:False	1	4	false	false	Correct	false	n/a	n-backMarkers
825.279370	0.012000	dropped_samples	4938.219421	Dropped 3 samples	n/a	n/a	n/a	n/a	n/a	n/a	3	UoHDataOffsetStream
825.762316	0.000000	4-back	4938.702367	Steps:4 KeyPress:False Matched:True	0	4	false	true	Wrong	false	n/a	n-backMarkers
827.463364	0.000000	4-back	4940.403416	Steps:4 KeyPress:False Matched:True	0	4	false	true	Wrong	false	n/a	n-backMarkers
827.774491	0.012000	dropped_samples	4940.714542	Dropped 3 samples	n/a	n/a	n/a	n/a	n/a	n/a	3	UoHDataOffsetStream
829.164047	0.000000	4-back	4942.104099	Steps:4 KeyPress:False Matched:False	1	4	false	false	Correct	false	n/a	n-backMarkers
830.865469	0.000000	4-back	4943.805520	Steps:4 KeyPress:False Matched:False	1	4	false	false	Correct	false	n/a	n-backMarkers
832.566713	0.000000	4-back	4945.506764	Steps:4 KeyPress:False Matched:False	1	4	false	false	Correct	false	n/a	n-backMarkers
834.267527	0.000000	4-back	4947.207579	Steps:4 KeyPress:False Matched:True	0	4	false	true	Wrong	false	n/a	n-backMarkers
835.430801	0.012000	dropped_samples	4948.370853	Dropped 3 samples	n/a	n/a	n/a	n/a	n/a	n/a	3	UoHDataOffsetStream
835.968806	0.000000	4-back	4948.908857	Steps:4 KeyPress:False Matched:False	1	4	false	false	Correct	false	n/a	n-backMarkers
837.668982	0.000000	4-back	4950.609033	Steps:4 KeyPress:False Matched:False	1	4	false	false	Correct	false	n/a	n-backMarkers
838.961059	0.004000	dropped_samples	4951.901111	Dropped 1 samples	n/a	n/a	n/a	n/a	n/a	n/a	1	UoHDataOffsetStream
839.370763	0.000000	4-back	4952.310814	Steps:4 KeyPress:True Matched:True	1	4	true	true	Correct	false	n/a	n-backMarkers
839.561737	0.008000	dropped_samples	4952.501788	Dropped 2 samples	n/a	n/a	n/a	n/a	n/a	n/a	2	UoHDataOffsetStream
841.071708	0.000000	4-back	4954.011759	Steps:4 KeyPress:False Matched:False	1	4	false	false	Correct	false	n/a	n-backMarkers
841.890985	0.004000	dropped_samples	4954.831037	Dropped 1 samples	n/a	n/a	n/a	n/a	n/a	n/a	1	UoHDataOffsetStream
842.772723	0.000000	4-back	4955.712774	Steps:4 KeyPress:False Matched:False	1	4	false	false	Correct	false	n/a	n-backMarkers
844.473869	0.000000	4-back	4957.413920	Steps:4 KeyPress:False Matched:False	1	4	false	false	Correct	false	n/a	n-backMarkers
846.090211	0.012000	dropped_samples	4959.030262	Dropped 3 samples	n/a	n/a	n/a	n/a	n/a	n/a	3	UoHDataOffsetStream
846.174712	0.000000	4-back	4959.114763	Steps:4 KeyPress:True Matched:True	1	4	true	true	Correct	false	n/a	n-backMarkers
847.875026	0.000000	4-back	4960.815077	Steps:4 KeyPress:False Matched:True	0	4	false	true	Wrong	false	n/a	n-backMarkers
849.576507	0.000000	4-back	4962.516558	Steps:4 KeyPress:False Matched:False	1	4	false	false	Correct	false	n/a	n-backMarkers
851.277500	0.000000	4-back	4964.217551	Steps:4 KeyPress:False Matched:False	1	4	false	false	Correct	false	n/a	n-backMarkers
852.978859	0.000000	4-back	4965.918910	Steps:4 KeyPress:False Matched:False	1	4	false	false	Correct	false	n/a	n-backMarkers
854.537217	0.012000	dropped_samples	4967.477268	Dropped 3 samples	n/a	n/a	n/a	n/a	n/a	n/a	3	UoHDataOffsetStream
854.681094	0.000000	4-back	4967.621145	Steps:4 KeyPress:False Matched:True	0	4	false	true	Wrong	false	n/a	n-backMarkers
856.381743	0.000000	4-back	4969.321795	Steps:4 KeyPress:False Matched:False	1	4	false	false	Correct	false	n/a	n-backMarkers
857.203263	0.004000	dropped_samples	4970.143314	Dropped 1 samples	n/a	n/a	n/a	n/a	n/a	n/a	1	UoHDataOffsetStream
858.082380	0.000000	4-back	4971.022432	Steps:4 KeyPress:False Matched:True	0	4	false	true	Wrong	false	n/a	n-backMarkers
859.783408	0.000000	4-back	4972.723460	Steps:4 KeyPress:False Matched:False	1	4	false	false	Correct	false	n/a	n-backMarkers
860.391758	0.012000	dropped_samples	4973.331809	Dropped 3 samples	n/a	n/a	n/a	n/a	n/a	n/a	3	UoHDataOffsetStream
860.992403	0.008000	dropped_samples	4973.932454	Dropped 2 samples	n/a	n/a	n/a	n/a	n/a	n/a	2	UoHDataOffsetStream
861.483937	0.000000	4-back	4974.423988	Steps:4 KeyPress:False Matched:False	1	4	false	false	Correct	false	n/a	n-backMarkers
863.185184	0.000000	4-back	4976.125236	Steps:4 KeyPress:False Matched:False	1	4	false	false	Correct	false	n/a	n-backMarkers
864.885993	0.000000	4-back	4977.826045	Steps:4 KeyPress:False Matched:True	0	4	false	true	Wrong	false	n/a	n-backMarkers
865.240370	0.004000	dropped_samples	4978.180422	Dropped 1 samples	n/a	n/a	n/a	n/a	n/a	n/a	1	UoHDataOffsetStream
866.586794	0.000000	4-back	4979.526846	Steps:4 KeyPress:False Matched:False	1	4	false	false	Correct	false	n/a	n-backMarkers
868.289146	0.000000	4-back	4981.229198	Steps:4 KeyPress:False Matched:True	0	4	false	true	Wrong	false	n/a	n-backMarkers
869.512867	0.004000	dropped_samples	4982.452919	Dropped 1 samples	n/a	n/a	n/a	n/a	n/a	n/a	1	UoHDataOffsetStream
869.989833	0.000000	4-back	4982.929885	Steps:4 KeyPress:False Matched:False	1	4	false	false	Correct	false	n/a	n-backMarkers
871.691713	0.000000	4-back	4984.631765	Steps:4 KeyPress:False Matched:False	1	4	false	false	Correct	false	n/a	n-backMarkers
872.969893	0.004000	dropped_samples	4985.909945	Dropped 1 samples	n/a	n/a	n/a	n/a	n/a	n/a	1	UoHDataOffsetStream
873.391812	0.000000	4-back	4986.331864	Steps:4 KeyPress:True Matched:False	0	4	true	false	Wrong	false	n/a	n-backMarkers
875.093169	0.000000	4-back	4988.033220	Steps:4 KeyPress:False Matched:True	0	4	false	true	Wrong	false	n/a	n-backMarkers
875.103764	0.004000	dropped_samples	4988.043816	Dropped 1 samples	n/a	n/a	n/a	n/a	n/a	n/a	1	UoHDataOffsetStream
876.402493	0.004000	dropped_samples	4989.342544	Dropped 1 samples	n/a	n/a	n/a	n/a	n/a	n/a	1	UoHDataOffsetStream
876.793246	0.000000	4-back	4989.733297	Steps:4 KeyPress:False Matched:True	0	4	false	true	Wrong	false	n/a	n-backMarkers
877.457217	0.004000	dropped_samples	4990.397268	Dropped 1 samples	n/a	n/a	n/a	n/a	n/a	n/a	1	UoHDataOffsetStream
878.493256	0.000000	4-back	4991.433307	Steps:4 KeyPress:False Matched:False	1	4	false	false	Correct	false	n/a	n-backMarkers
880.194802	0.000000	4-back	4993.134854	Steps:4 KeyPress:False Matched:False	1	4	false	false	Correct	false	n/a	n-backMarkers
880.626155	0.004000	dropped_samples	4993.566206	Dropped 1 samples	n/a	n/a	n/a	n/a	n/a	n/a	1	UoHDataOffsetStream
880.963022	0.004000	dropped_samples	4993.903074	Dropped 1 samples	n/a	n/a	n/a	n/a	n/a	n/a	1	UoHDataOffsetStream
881.871294	0.012000	dropped_samples	4994.811346	Dropped 3 samples	n/a	n/a	n/a	n/a	n/a	n/a	3	UoHDataOffsetStream
881.896841	0.000000	4-back	4994.836893	Steps:4 KeyPress:False Matched:False	1	4	false	false	Correct	false	n/a	n-backMarkers
882.618371	0.012000	dropped_samples	4995.558422	Dropped 3 samples	n/a	n/a	n/a	n/a	n/a	n/a	3	UoHDataOffsetStream
883.482577	0.012000	dropped_samples	4996.422628	Dropped 3 samples	n/a	n/a	n/a	n/a	n/a	n/a	3	UoHDataOffsetStream
883.596905	0.000000	4-back	4996.536956	Steps:4 KeyPress:False Matched:True	0	4	false	true	Wrong	false	n/a	n-backMarkers
885.298207	0.000000	4-back	4998.238258	Steps:4 KeyPress:True Matched:True	1	4	true	true	Correct	false	n/a	n-backMarkers
886.998802	0.000000	4-back	4999.938854	Steps:4 KeyPress:False Matched:False	1	4	false	false	Correct	false	n/a	n-backMarkers
888.135967	0.004000	dropped_samples	5001.076018	Dropped 1 samples	n/a	n/a	n/a	n/a	n/a	n/a	1	UoHDataOffsetStream
888.700498	0.000000	4-back	5001.640549	Steps:4 KeyPress:False Matched:False	1	4	false	false	Correct	false	n/a	n-backMarkers
889.551924	0.004000	dropped_samples	5002.491975	Dropped 1 samples	n/a	n/a	n/a	n/a	n/a	n/a	1	UoHDataOffsetStream
890.400617	0.000000	4-back	5003.340669	Steps:4 KeyPress:False Matched:False	1	4	false	false	Correct	false	n/a	n-backMarkers
891.739437	0.004000	dropped_samples	5004.679489	Dropped 1 samples	n/a	n/a	n/a	n/a	n/a	n/a	1	UoHDataOffsetStream
892.102214	0.000000	4-back	5005.042265	Steps:4 KeyPress:True Matched:True	1	4	true	true	Correct	false	n/a	n-backMarkers
893.803561	0.000000	4-back	5006.743612	Steps:4 KeyPress:False Matched:False	1	4	false	false	Correct	false	n/a	n-backMarkers
895.504817	0.000000	4-back	5008.444868	Steps:4 KeyPress:False Matched:True	0	4	false	true	Wrong	false	n/a	n-backMarkers
897.205822	0.000000	4-back	5010.145874	Steps:4 KeyPress:False Matched:False	1	4	false	false	Correct	false	n/a	n-backMarkers
898.906738	0.000000	4-back	5011.846790	Steps:4 KeyPress:False Matched:False	1	4	false	false	Correct	false	n/a	n-backMarkers
900.607841	0.000000	4-back	5013.547893	Steps:4 KeyPress:False Matched:False	1	4	false	false	Correct	false	n/a	n-backMarkers
901.529460	0.004000	dropped_samples	5014.469511	Dropped 1 samples	n/a	n/a	n/a	n/a	n/a	n/a	1	UoHDataOffsetStream
902.309757	0.000000	4-back	5015.249809	Steps:4 KeyPress:False Matched:True	0	4	false	true	Wrong	false	n/a	n-backMarkers
903.643750	0.004000	dropped_samples	5016.583802	Dropped 1 samples	n/a	n/a	n/a	n/a	n/a	n/a	1	UoHDataOffsetStream
904.010712	0.000000	4-back	5016.950763	Steps:4 KeyPress:True Matched:True	1	4	true	true	Correct	false	n/a	n-backMarkers
904.791235	0.004000	dropped_samples	5017.731287	Dropped 1 samples	n/a	n/a	n/a	n/a	n/a	n/a	1	UoHDataOffsetStream
905.710743	0.000000	4-back	5018.650794	Steps:4 KeyPress:False Matched:False	1	4	false	false	Correct	false	n/a	n-backMarkers
906.451354	0.004000	dropped_samples	5019.391405	Dropped 1 samples	n/a	n/a	n/a	n/a	n/a	n/a	1	UoHDataOffsetStream
907.169113	0.012000	dropped_samples	5020.109165	Dropped 3 samples	n/a	n/a	n/a	n/a	n/a	n/a	3	UoHDataOffsetStream
907.411791	0.000000	4-back	5020.351842	Steps:4 KeyPress:False Matched:False	1	4	false	false	Correct	false	n/a	n-backMarkers
908.487503	0.012000	dropped_samples	5021.427555	Dropped 3 samples	n/a	n/a	n/a	n/a	n/a	n/a	3	UoHDataOffsetStream
909.113618	0.000000	4-back	5022.053670	Steps:4 KeyPress:False Matched:False	1	4	false	false	Correct	false	n/a	n-backMarkers
910.813798	0.000000	4-back	5023.753850	Steps:4 KeyPress:False Matched:True	0	4	false	true	Wrong	false	n/a	n-backMarkers
911.874279	0.004000	dropped_samples	5024.814330	Dropped 1 samples	n/a	n/a	n/a	n/a	n/a	n/a	1	UoHDataOffsetStream
912.514848	0.000000	4-back	5025.454899	Steps:4 KeyPress:True Matched:True	1	4	true	true	Correct	false	n/a	n-backMarkers
914.216647	0.000000	4-back	5027.156699	Steps:4 KeyPress:False Matched:False	1	4	false	false	Correct	false	n/a	n-backMarkers
915.137915	0.004000	dropped_samples	5028.077966	Dropped 1 samples	n/a	n/a	n/a	n/a	n/a	n/a	1	UoHDataOffsetStream
915.917729	0.000000	4-back	5028.857780	Steps:4 KeyPress:False Matched:False	1	4	false	false	Correct	false	n/a	n-backMarkers
917.618769	0.000000	4-back	5030.558821	Steps:4 KeyPress:False Matched:False	1	4	false	false	Correct	false	n/a	n-backMarkers
918.619334	0.004000	dropped_samples	5031.559386	Dropped 1 samples	n/a	n/a	n/a	n/a	n/a	n/a	1	UoHDataOffsetStream
919.320503	0.000000	4-back	5032.260555	Steps:4 KeyPress:False Matched:True	0	4	false	true	Wrong	false	n/a	n-backMarkers
920.943595	0.004000	dropped_samples	5033.883647	Dropped 1 samples	n/a	n/a	n/a	n/a	n/a	n/a	1	UoHDataOffsetStream
921.021207	0.000000	4-back	5033.961258	Steps:4 KeyPress:True Matched:False	0	4	true	false	Wrong	false	n/a	n-backMarkers
922.721710	0.000000	4-back	5035.661762	Steps:4 KeyPress:False Matched:False	1	4	false	false	Correct	false	n/a	n-backMarkers
923.560790	0.012000	dropped_samples	5036.500841	Dropped 3 samples	n/a	n/a	n/a	n/a	n/a	n/a	3	UoHDataOffsetStream
924.422726	0.000000	4-back	5037.362778	Steps:4 KeyPress:False Matched:True	0	4	false	true	Wrong	false	n/a	n-backMarkers
925.074420	0.004000	dropped_samples	5038.014472	Dropped 1 samples	n/a	n/a	n/a	n/a	n/a	n/a	1	UoHDataOffsetStream
925.191653	0.004000	dropped_samples	5038.131704	Dropped 1 samples	n/a	n/a	n/a	n/a	n/a	n/a	1	UoHDataOffsetStream
926.124818	0.000000	4-back	5039.064870	Steps:4 KeyPress:False Matched:False	1	4	false	false	Correct	false	n/a	n-backMarkers
927.287840	0.012000	dropped_samples	5040.227892	Dropped 3 samples	n/a	n/a	n/a	n/a	n/a	n/a	3	UoHDataOffsetStream
927.825824	0.000000	4-back	5040.765875	Steps:4 KeyPress:False Matched:False	1	4	false	false	Correct	false	n/a	n-backMarkers
928.648816	0.012000	dropped_samples	5041.588868	Dropped 3 samples	n/a	n/a	n/a	n/a	n/a	n/a	3	UoHDataOffsetStream
929.526711	0.000000	4-back	5042.466762	Steps:4 KeyPress:False Matched:False	1	4	false	false	Correct	false	n/a	n-backMarkers
930.738491	0.008000	dropped_samples	5043.678542	Dropped 2 samples	n/a	n/a	n/a	n/a	n/a	n/a	2	UoHDataOffsetStream
931.228745	0.000000	4-back	5044.168796	Steps:4 KeyPress:True Matched:True	1	4	true	true	Correct	false	n/a	n-backMarkers
932.929561	0.000000	4-back	5045.869613	Steps:4 KeyPress:False Matched:False	1	4	false	false	Correct	false	n/a	n-backMarkers
934.630535	0.000000	4-back	5047.570586	Steps:4 KeyPress:False Matched:False	1	4	false	false	Correct	false	n/a	n-backMarkers
936.187755	0.004000	dropped_samples	5049.127807	Dropped 1 samples	n/a	n/a	n/a	n/a	n/a	n/a	1	UoHDataOffsetStream
936.331207	0.000000	4-back	5049.271259	Steps:4 KeyPress:False Matched:False	1	4	false	false	Correct	false	n/a	n-backMarkers
938.032409	0.000000	4-back	5050.972460	Steps:4 KeyPress:False Matched:False	1	4	false	false	Correct	false	n/a	n-backMarkers
939.733075	0.000000	4-back	5052.673127	Steps:4 KeyPress:False Matched:True	0	4	false	true	Wrong	false	n/a	n-backMarkers
941.031546	0.004000	dropped_samples	5053.971597	Dropped 1 samples	n/a	n/a	n/a	n/a	n/a	n/a	1	UoHDataOffsetStream
941.433819	0.000000	4-back	5054.373870	Steps:4 KeyPress:False Matched:False	1	4	false	false	Correct	false	n/a	n-backMarkers
943.135587	0.000000	4-back	5056.075638	Steps:4 KeyPress:False Matched:False	1	4	false	false	Correct	false	n/a	n-backMarkers
943.985598	0.004000	dropped_samples	5056.925649	Dropped 1 samples	n/a	n/a	n/a	n/a	n/a	n/a	1	UoHDataOffsetStream
944.835831	0.000000	4-back	5057.775882	Steps:4 KeyPress:False Matched:False	1	4	false	false	Correct	false	n/a	n-backMarkers
944.898707	0.012000	dropped_samples	5057.838759	Dropped 3 samples	n/a	n/a	n/a	n/a	n/a	n/a	3	UoHDataOffsetStream
945.738762	0.004000	dropped_samples	5058.678813	Dropped 1 samples	n/a	n/a	n/a	n/a	n/a	n/a	1	UoHDataOffsetStream
946.192758	0.008000	dropped_samples	5059.132809	Dropped 2 samples	n/a	n/a	n/a	n/a	n/a	n/a	2	UoHDataOffsetStream
946.537651	0.000000	4-back	5059.477703	Steps:4 KeyPress:True Matched:True	1	4	true	true	Correct	false	n/a	n-backMarkers
948.238584	0.000000	4-back	5061.178636	Steps:4 KeyPress:False Matched:False	1	4	false	false	Correct	false	n/a	n-backMarkers
949.940141	0.000000	4-back	5062.880193	Steps:4 KeyPress:False Matched:True	0	4	false	true	Wrong	false	n/a	n-backMarkers
951.353775	0.004000	dropped_samples	5064.293826	Dropped 1 samples	n/a	n/a	n/a	n/a	n/a	n/a	1	UoHDataOffsetStream
951.641592	0.000000	4-back	5064.581643	Steps:4 KeyPress:False Matched:False	1	4	false	false	Correct	false	n/a	n-backMarkers
952.027629	0.004000	dropped_samples	5064.967680	Dropped 1 samples	n/a	n/a	n/a	n/a	n/a	n/a	1	UoHDataOffsetStream
953.342749	0.000000	4-back	5066.282801	Steps:4 KeyPress:True Matched:False	0	4	true	false	Wrong	false	n/a	n-backMarkers
955.044609	0.000000	4-back	5067.984661	Steps:4 KeyPress:False Matched:False	1	4	false	false	Correct	false	n/a	n-backMarkers
956.588140	0.004000	dropped_samples	5069.528191	Dropped 1 samples	n/a	n/a	n/a	n/a	n/a	n/a	1	UoHDataOffsetStream
956.745605	0.000000	4-back	5069.685656	Steps:4 KeyPress:False Matched:True	0	4	false	true	Wrong	false	n/a	n-backMarkers
958.446642	0.000000	4-back	5071.386693	Steps:4 KeyPress:False Matched:False	1	4	false	false	Correct	false	n/a	n-backMarkers
959.727845	0.016000	dropped_samples	5072.667896	Dropped 4 samples	n/a	n/a	n/a	n/a	n/a	n/a	4	UoHDataOffsetStream
960.147487	0.000000	4-back	5073.087539	Steps:4 KeyPress:False Matched:True	0	4	false	true	Wrong	false	n/a	n-backMarkers
960.284459	0.012000	dropped_samples	5073.224511	Dropped 3 samples	n/a	n/a	n/a	n/a	n/a	n/a	3	UoHDataOffsetStream
961.847805	0.000000	4-back	5074.787856	Steps:4 KeyPress:False Matched:False	1	4	false	false	Correct	false	n/a	n-backMarkers
963.548900	0.000000	4-back	5076.488952	Steps:4 KeyPress:False Matched:False	1	4	false	false	Correct	false	n/a	n-backMarkers
965.035440	0.004000	dropped_samples	5077.975491	Dropped 1 samples	n/a	n/a	n/a	n/a	n/a	n/a	1	UoHDataOffsetStream
965.249645	0.000000	4-back	5078.189697	Steps:4 KeyPress:False Matched:False	1	4	false	false	Correct	false	n/a	n-backMarkers
965.753189	0.012000	dropped_samples	5078.693241	Dropped 3 samples	n/a	n/a	n/a	n/a	n/a	n/a	3	UoHDataOffsetStream
966.950516	0.000000	4-back	5079.890567	Steps:4 KeyPress:True Matched:True	1	4	true	true	Correct	false	n/a	n-backMarkers
968.634084	0.004000	dropped_samples	5081.574136	Dropped 1 samples	n/a	n/a	n/a	n/a	n/a	n/a	1	UoHDataOffsetStream
968.651641	0.000000	4-back	5081.591692	Steps:4 KeyPress:False Matched:False	1	4	false	false	Correct	false	n/a	n-backMarkers
970.352021	0.000000	4-back	5083.292072	Steps:4 KeyPress:False Matched:False	1	4	false	false	Correct	false	n/a	n-backMarkers
970.792275	0.012000	dropped_samples	5083.732327	Dropped 3 samples	n/a	n/a	n/a	n/a	n/a	n/a	3	UoHDataOffsetStream
972.053615	0.000000	4-back	5084.993666	Steps:4 KeyPress:False Matched:True	0	4	false	true	Wrong	false	n/a	n-backMarkers
973.433859	0.008000	dropped_samples	5086.373910	Dropped 2 samples	n/a	n/a	n/a	n/a	n/a	n/a	2	UoHDataOffsetStream
973.755521	0.000000	4-back	5086.695572	Steps:4 KeyPress:False Matched:False	1	4	false	false	Correct	false	n/a	n-backMarkers
974.249294	0.004000	dropped_samples	5087.189345	Dropped 1 samples	n/a	n/a	n/a	n/a	n/a	n/a	1	UoHDataOffsetStream
975.401664	0.012000	dropped_samples	5088.341715	Dropped 3 samples	n/a	n/a	n/a	n/a	n/a	n/a	3	UoHDataOffsetStream
975.457579	0.000000	4-back	5088.397631	Steps:4 KeyPress:False Matched:False	1	4	false	false	Correct	false	n/a	n-backMarkers
976.578388	0.004000	dropped_samples	5089.518439	Dropped 1 samples	n/a	n/a	n/a	n/a	n/a	n/a	1	UoHDataOffsetStream
977.085593	0.004000	dropped_samples	5090.025645	Dropped 1 samples	n/a	n/a	n/a	n/a	n/a	n/a	1	UoHDataOffsetStream
977.158427	0.000000	4-back	5090.098478	Steps:4 KeyPress:False Matched:False	1	4	false	false	Correct	false	n/a	n-backMarkers
