onset	duration	trial_type	timestamp_lsl	marker	response_accuracy	difficulty_range	nback_n	keypress	matched	outcome	istutorial	dropped_samples	marker_stream
0.344808	0.028000	dropped_samples	5047.998692	Dropped 7 samples	n/a	n/a	n/a	n/a	n/a	n/a	n/a	7	UoHDataOffsetStream
1.159277	0.012000	dropped_samples	5048.813161	Dropped 3 samples	n/a	n/a	n/a	n/a	n/a	n/a	n/a	3	UoHDataOffsetStream
1.343128	0.008000	dropped_samples	5048.997013	Dropped 2 samples	n/a	n/a	n/a	n/a	n/a	n/a	n/a	2	UoHDataOffsetStream
1.662164	0.004000	dropped_samples	5049.316049	Dropped 1 samples	n/a	n/a	n/a	n/a	n/a	n/a	n/a	1	UoHDataOffsetStream
2.454764	0.016000	dropped_samples	5050.108648	Dropped 4 samples	n/a	n/a	n/a	n/a	n/a	n/a	n/a	4	UoHDataOffsetStream
3.722703	0.004000	dropped_samples	5051.376587	Dropped 1 samples	n/a	n/a	n/a	n/a	n/a	n/a	n/a	1	UoHDataOffsetStream
6.554759	0.004000	dropped_samples	5054.208644	Dropped 1 samples	n/a	n/a	n/a	n/a	n/a	n/a	n/a	1	UoHDataOffsetStream
7.685662	0.004000	dropped_samples	5055.339546	Dropped 1 samples	n/a	n/a	n/a	n/a	n/a	n/a	n/a	1	UoHDataOffsetStream
7.806337	0.004000	dropped_samples	5055.460221	Dropped 1 samples	n/a	n/a	n/a	n/a	n/a	n/a	n/a	1	UoHDataOffsetStream
10.011784	0.020000	dropped_samples	5057.665668	Dropped 5 samples	n/a	n/a	n/a	n/a	n/a	n/a	n/a	5	UoHDataOffsetStream
10.133836	0.004000	dropped_samples	5057.787721	Dropped 1 samples	n/a	n/a	n/a	n/a	n/a	n/a	n/a	1	UoHDataOffsetStream
12.126017	0.004000	dropped_samples	5059.779902	Dropped 1 samples	n/a	n/a	n/a	n/a	n/a	n/a	n/a	1	UoHDataOffsetStream
12.442775	0.008000	dropped_samples	5060.096660	Dropped 2 samples	n/a	n/a	n/a	n/a	n/a	n/a	n/a	2	UoHDataOffsetStream
12.704878	0.012000	dropped_samples	5060.358762	Dropped 3 samples	n/a	n/a	n/a	n/a	n/a	n/a	n/a	3	UoHDataOffsetStream
14.242160	0.004000	dropped_samples	5061.896045	Dropped 1 samples	n/a	n/a	n/a	n/a	n/a	n/a	n/a	1	UoHDataOffsetStream
14.450274	0.008000	dropped_samples	5062.104159	Dropped 2 samples	n/a	n/a	n/a	n/a	n/a	n/a	n/a	2	UoHDataOffsetStream
14.738357	0.004000	dropped_samples	5062.392242	Dropped 1 samples	n/a	n/a	n/a	n/a	n/a	n/a	n/a	1	UoHDataOffsetStream
15.363602	0.004000	dropped_samples	5063.017487	Dropped 1 samples	n/a	n/a	n/a	n/a	n/a	n/a	n/a	1	UoHDataOffsetStream
16.629989	0.012000	dropped_samples	5064.283873	Dropped 3 samples	n/a	n/a	n/a	n/a	n/a	n/a	n/a	3	UoHDataOffsetStream
16.731723	0.004000	dropped_samples	5064.385608	Dropped 1 samples	n/a	n/a	n/a	n/a	n/a	n/a	n/a	1	UoHDataOffsetStream
17.671204	0.012000	dropped_samples	5065.325089	Dropped 3 samples	n/a	n/a	n/a	n/a	n/a	n/a	n/a	3	UoHDataOffsetStream
17.721086	0.028000	dropped_samples	5065.374971	Dropped 7 samples	n/a	n/a	n/a	n/a	n/a	n/a	n/a	7	UoHDataOffsetStream
18.677592	0.004000	dropped_samples	5066.331477	Dropped 1 samples	n/a	n/a	n/a	n/a	n/a	n/a	n/a	1	UoHDataOffsetStream
18.822448	0.044000	dropped_samples	5066.476333	Dropped 11 samples	n/a	n/a	n/a	n/a	n/a	n/a	n/a	11	UoHDataOffsetStream
18.869223	0.004000	dropped_samples	5066.523108	Dropped 1 samples	n/a	n/a	n/a	n/a	n/a	n/a	n/a	1	UoHDataOffsetStream
23.210875	0.004000	dropped_samples	5070.864760	Dropped 1 samples	n/a	n/a	n/a	n/a	n/a	n/a	n/a	1	UoHDataOffsetStream
26.930776	0.008000	dropped_samples	5074.584661	Dropped 2 samples	n/a	n/a	n/a	n/a	n/a	n/a	n/a	2	UoHDataOffsetStream
27.819795	0.008000	dropped_samples	5075.473680	Dropped 2 samples	n/a	n/a	n/a	n/a	n/a	n/a	n/a	2	UoHDataOffsetStream
29.211061	0.004000	dropped_samples	5076.864946	Dropped 1 samples	n/a	n/a	n/a	n/a	n/a	n/a	n/a	1	UoHDataOffsetStream
29.670027	0.004000	dropped_samples	5077.323912	Dropped 1 samples	n/a	n/a	n/a	n/a	n/a	n/a	n/a	1	UoHDataOffsetStream
32.858525	0.008000	dropped_samples	5080.512409	Dropped 2 samples	n/a	n/a	n/a	n/a	n/a	n/a	n/a	2	UoHDataOffsetStream
33.102673	0.008000	dropped_samples	5080.756557	Dropped 2 samples	n/a	n/a	n/a	n/a	n/a	n/a	n/a	2	UoHDataOffsetStream
33.942514	0.004000	dropped_samples	5081.596399	Dropped 1 samples	n/a	n/a	n/a	n/a	n/a	n/a	n/a	1	UoHDataOffsetStream
34.738746	0.004000	dropped_samples	5082.392631	Dropped 1 samples	n/a	n/a	n/a	n/a	n/a	n/a	n/a	1	UoHDataOffsetStream
35.516365	0.004000	dropped_samples	5083.170249	Dropped 1 samples	n/a	n/a	n/a	n/a	n/a	n/a	n/a	1	UoHDataOffsetStream
38.932792	0.004000	dropped_samples	5086.586677	Dropped 1 samples	n/a	n/a	n/a	n/a	n/a	n/a	n/a	1	UoHDataOffsetStream
39.606599	0.004000	dropped_samples	5087.260484	Dropped 1 samples	n/a	n/a	n/a	n/a	n/a	n/a	n/a	1	UoHDataOffsetStream
39.675137	0.004000	dropped_samples	5087.329021	Dropped 1 samples	n/a	n/a	n/a	n/a	n/a	n/a	n/a	1	UoHDataOffsetStream
40.762658	0.008000	dropped_samples	5088.416543	Dropped 2 samples	n/a	n/a	n/a	n/a	n/a	n/a	n/a	2	UoHDataOffsetStream
43.346839	0.040000	dropped_samples	5091.000723	Dropped 10 samples	n/a	n/a	n/a	n/a	n/a	n/a	n/a	10	UoHDataOffsetStream
44.645781	0.004000	dropped_samples	5092.299666	Dropped 1 samples	n/a	n/a	n/a	n/a	n/a	n/a	n/a	1	UoHDataOffsetStream
44.718883	0.004000	dropped_samples	5092.372768	Dropped 1 samples	n/a	n/a	n/a	n/a	n/a	n/a	n/a	1	UoHDataOffsetStream
46.542225	0.020000	dropped_samples	5094.196110	Dropped 5 samples	n/a	n/a	n/a	n/a	n/a	n/a	n/a	5	UoHDataOffsetStream
46.603887	0.008000	dropped_samples	5094.257772	Dropped 2 samples	n/a	n/a	n/a	n/a	n/a	n/a	n/a	2	UoHDataOffsetStream
46.755263	0.016000	dropped_samples	5094.409148	Dropped 4 samples	n/a	n/a	n/a	n/a	n/a	n/a	n/a	4	UoHDataOffsetStream
46.974791	0.004000	dropped_samples	5094.628676	Dropped 1 samples	n/a	n/a	n/a	n/a	n/a	n/a	n/a	1	UoHDataOffsetStream
49.875192	0.008000	dropped_samples	5097.529076	Dropped 2 samples	n/a	n/a	n/a	n/a	n/a	n/a	n/a	2	UoHDataOffsetStream
52.804893	0.004000	dropped_samples	5100.458777	Dropped 1 samples	n/a	n/a	n/a	n/a	n/a	n/a	n/a	1	UoHDataOffsetStream
53.522637	0.004000	dropped_samples	5101.176522	Dropped 1 samples	n/a	n/a	n/a	n/a	n/a	n/a	n/a	1	UoHDataOffsetStream
55.778488	0.008000	dropped_samples	5103.432373	Dropped 2 samples	n/a	n/a	n/a	n/a	n/a	n/a	n/a	2	UoHDataOffsetStream
56.813689	0.004000	dropped_samples	5104.467574	Dropped 1 samples	n/a	n/a	n/a	n/a	n/a	n/a	n/a	1	UoHDataOffsetStream
59.621608	0.004000	dropped_samples	5107.275492	Dropped 1 samples	n/a	n/a	n/a	n/a	n/a	n/a	n/a	1	UoHDataOffsetStream
59.645740	0.004000	dropped_samples	5107.299625	Dropped 1 samples	n/a	n/a	n/a	n/a	n/a	n/a	n/a	1	UoHDataOffsetStream
60.627177	0.008000	dropped_samples	5108.281061	Dropped 2 samples	n/a	n/a	n/a	n/a	n/a	n/a	n/a	2	UoHDataOffsetStream
65.646919	0.008000	dropped_samples	5113.300803	Dropped 2 samples	n/a	n/a	n/a	n/a	n/a	n/a	n/a	2	UoHDataOffsetStream
67.492435	0.004000	dropped_samples	5115.146319	Dropped 1 samples	n/a	n/a	n/a	n/a	n/a	n/a	n/a	1	UoHDataOffsetStream
71.380215	0.000000	started_tutorial_n-back	5119.034100	Started tutorial n-back	n/a	n/a	n/a	n/a	n/a	n/a	n/a	n/a	n-backMarkers
71.979743	0.012000	dropped_samples	5119.633627	Dropped 3 samples	n/a	n/a	n/a	n/a	n/a	n/a	n/a	3	UoHDataOffsetStream
76.613545	0.004000	dropped_samples	5124.267430	Dropped 1 samples	n/a	n/a	n/a	n/a	n/a	n/a	n/a	1	UoHDataOffsetStream
78.205524	0.012000	dropped_samples	5125.859408	Dropped 3 samples	n/a	n/a	n/a	n/a	n/a	n/a	n/a	3	UoHDataOffsetStream
78.225655	0.008000	dropped_samples	5125.879539	Dropped 2 samples	n/a	n/a	n/a	n/a	n/a	n/a	n/a	2	UoHDataOffsetStream
78.351420	0.008000	dropped_samples	5126.005305	Dropped 2 samples	n/a	n/a	n/a	n/a	n/a	n/a	n/a	2	UoHDataOffsetStream
78.352867	0.024000	dropped_samples	5126.006752	Dropped 6 samples	n/a	n/a	n/a	n/a	n/a	n/a	n/a	6	UoHDataOffsetStream
78.735652	0.016000	dropped_samples	5126.389537	Dropped 4 samples	n/a	n/a	n/a	n/a	n/a	n/a	n/a	4	UoHDataOffsetStream
78.842557	0.060000	dropped_samples	5126.496442	Dropped 15 samples	n/a	n/a	n/a	n/a	n/a	n/a	n/a	15	UoHDataOffsetStream
78.971132	0.008000	dropped_samples	5126.625016	Dropped 2 samples	n/a	n/a	n/a	n/a	n/a	n/a	n/a	2	UoHDataOffsetStream
79.068004	0.004000	dropped_samples	5126.721888	Dropped 1 samples	n/a	n/a	n/a	n/a	n/a	n/a	n/a	1	UoHDataOffsetStream
79.149863	0.012000	dropped_samples	5126.803747	Dropped 3 samples	n/a	n/a	n/a	n/a	n/a	n/a	n/a	3	UoHDataOffsetStream
79.181902	0.008000	dropped_samples	5126.835787	Dropped 2 samples	n/a	n/a	n/a	n/a	n/a	n/a	n/a	2	UoHDataOffsetStream
80.169360	0.012000	dropped_samples	5127.823245	Dropped 3 samples	n/a	n/a	n/a	n/a	n/a	n/a	n/a	3	UoHDataOffsetStream
80.212194	0.008000	dropped_samples	5127.866079	Dropped 2 samples	n/a	n/a	n/a	n/a	n/a	n/a	n/a	2	UoHDataOffsetStream
84.436031	0.004000	dropped_samples	5132.089916	Dropped 1 samples	n/a	n/a	n/a	n/a	n/a	n/a	n/a	1	UoHDataOffsetStream
86.167154	0.008000	dropped_samples	5133.821039	Dropped 2 samples	n/a	n/a	n/a	n/a	n/a	n/a	n/a	2	UoHDataOffsetStream
86.321783	0.004000	dropped_samples	5133.975667	Dropped 1 samples	n/a	n/a	n/a	n/a	n/a	n/a	n/a	1	UoHDataOffsetStream
86.361599	0.012000	dropped_samples	5134.015484	Dropped 3 samples	n/a	n/a	n/a	n/a	n/a	n/a	n/a	3	UoHDataOffsetStream
87.093882	0.008000	dropped_samples	5134.747766	Dropped 2 samples	n/a	n/a	n/a	n/a	n/a	n/a	n/a	2	UoHDataOffsetStream
87.233497	0.008000	dropped_samples	5134.887381	Dropped 2 samples	n/a	n/a	n/a	n/a	n/a	n/a	n/a	2	UoHDataOffsetStream
87.312002	0.012000	dropped_samples	5134.965886	Dropped 3 samples	n/a	n/a	n/a	n/a	n/a	n/a	n/a	3	UoHDataOffsetStream
87.362844	0.012000	dropped_samples	5135.016728	Dropped 3 samples	n/a	n/a	n/a	n/a	n/a	n/a	n/a	3	UoHDataOffsetStream
88.157920	0.004000	dropped_samples	5135.811805	Dropped 1 samples	n/a	n/a	n/a	n/a	n/a	n/a	n/a	1	UoHDataOffsetStream
88.235172	0.008000	dropped_samples	5135.889057	Dropped 2 samples	n/a	n/a	n/a	n/a	n/a	n/a	n/a	2	UoHDataOffsetStream
88.357923	0.028000	dropped_samples	5136.011808	Dropped 7 samples	n/a	n/a	n/a	n/a	n/a	n/a	n/a	7	UoHDataOffsetStream
89.045237	0.004000	dropped_samples	5136.699121	Dropped 1 samples	n/a	n/a	n/a	n/a	n/a	n/a	n/a	1	UoHDataOffsetStream
98.430242	0.008000	dropped_samples	5146.084127	Dropped 2 samples	n/a	n/a	n/a	n/a	n/a	n/a	n/a	2	UoHDataOffsetStream
110.046263	0.004000	dropped_samples	5157.700147	Dropped 1 samples	n/a	n/a	n/a	n/a	n/a	n/a	n/a	1	UoHDataOffsetStream
110.837296	0.012000	dropped_samples	5158.491181	Dropped 3 samples	n/a	n/a	n/a	n/a	n/a	n/a	n/a	3	UoHDataOffsetStream
114.748386	0.004000	dropped_samples	5162.402271	Dropped 1 samples	n/a	n/a	n/a	n/a	n/a	n/a	n/a	1	UoHDataOffsetStream
118.635155	0.004000	dropped_samples	5166.289040	Dropped 1 samples	n/a	n/a	n/a	n/a	n/a	n/a	n/a	1	UoHDataOffsetStream
119.598249	0.004000	dropped_samples	5167.252133	Dropped 1 samples	n/a	n/a	n/a	n/a	n/a	n/a	n/a	1	UoHDataOffsetStream
119.787462	0.004000	dropped_samples	5167.441347	Dropped 1 samples	n/a	n/a	n/a	n/a	n/a	n/a	n/a	1	UoHDataOffsetStream
120.051165	0.004000	dropped_samples	5167.705049	Dropped 1 samples	n/a	n/a	n/a	n/a	n/a	n/a	n/a	1	UoHDataOffsetStream
123.391103	0.004000	dropped_samples	5171.044987	Dropped 1 samples	n/a	n/a	n/a	n/a	n/a	n/a	n/a	1	UoHDataOffsetStream
126.003521	0.004000	dropped_samples	5173.657406	Dropped 1 samples	n/a	n/a	n/a	n/a	n/a	n/a	n/a	1	UoHDataOffsetStream
129.030686	0.004000	dropped_samples	5176.684570	Dropped 1 samples	n/a	n/a	n/a	n/a	n/a	n/a	n/a	1	UoHDataOffsetStream
132.292437	0.004000	dropped_samples	5179.946322	Dropped 1 samples	n/a	n/a	n/a	n/a	n/a	n/a	n/a	1	UoHDataOffsetStream
135.305341	0.004000	dropped_samples	5182.959226	Dropped 1 samples	n/a	n/a	n/a	n/a	n/a	n/a	n/a	1	UoHDataOffsetStream
138.404231	1.701006	nback_1	5186.058116	Steps:1 KeyPress:False Matched:False	1	n/a	1	False	False	n/a	n/a	n/a	n-backMarkers
140.104484	1.701006	nback_1	5187.758368	Steps:1 KeyPress:False Matched:False	1	n/a	1	False	False	n/a	n/a	n/a	n-backMarkers
141.806165	1.701006	nback_1	5189.460050	Steps:1 KeyPress:False Matched:False	1	n/a	1	False	False	n/a	n/a	n/a	n-backMarkers
143.181344	0.004000	dropped_samples	5190.835229	Dropped 1 samples	n/a	n/a	n/a	n/a	n/a	n/a	n/a	1	UoHDataOffsetStream
143.506388	1.701006	nback_1	5191.160273	Steps:1 KeyPress:False Matched:False	1	n/a	1	False	False	n/a	n/a	n/a	n-backMarkers
143.595278	0.020000	dropped_samples	5191.249163	Dropped 5 samples	n/a	n/a	n/a	n/a	n/a	n/a	n/a	5	UoHDataOffsetStream
143.618285	0.012000	dropped_samples	5191.272170	Dropped 3 samples	n/a	n/a	n/a	n/a	n/a	n/a	n/a	3	UoHDataOffsetStream
144.745359	0.036000	dropped_samples	5192.399244	Dropped 9 samples	n/a	n/a	n/a	n/a	n/a	n/a	n/a	9	UoHDataOffsetStream
144.812180	0.012000	dropped_samples	5192.466064	Dropped 3 samples	n/a	n/a	n/a	n/a	n/a	n/a	n/a	3	UoHDataOffsetStream
145.208084	1.701006	nback_1	5192.861968	Steps:1 KeyPress:True Matched:True	1	n/a	1	True	True	n/a	n/a	n/a	n-backMarkers
145.526710	0.012000	dropped_samples	5193.180594	Dropped 3 samples	n/a	n/a	n/a	n/a	n/a	n/a	n/a	3	UoHDataOffsetStream
145.678849	0.008000	dropped_samples	5193.332733	Dropped 2 samples	n/a	n/a	n/a	n/a	n/a	n/a	n/a	2	UoHDataOffsetStream
146.908050	1.701006	nback_1	5194.561935	Steps:1 KeyPress:False Matched:False	1	n/a	1	False	False	n/a	n/a	n/a	n-backMarkers
148.609496	1.701006	nback_1	5196.263380	Steps:1 KeyPress:True Matched:False	0	n/a	1	True	False	n/a	n/a	n/a	n-backMarkers
150.310132	1.701006	nback_1	5197.964017	Steps:1 KeyPress:True Matched:True	1	n/a	1	True	True	n/a	n/a	n/a	n-backMarkers
152.012282	1.701006	nback_1	5199.666167	Steps:1 KeyPress:True Matched:True	1	n/a	1	True	True	n/a	n/a	n/a	n-backMarkers
153.714074	1.701006	nback_1	5201.367959	Steps:1 KeyPress:False Matched:False	1	n/a	1	False	False	n/a	n/a	n/a	n-backMarkers
155.415015	1.701006	nback_1	5203.068900	Steps:1 KeyPress:True Matched:False	0	n/a	1	True	False	n/a	n/a	n/a	n-backMarkers
157.053449	0.004000	dropped_samples	5204.707334	Dropped 1 samples	n/a	n/a	n/a	n/a	n/a	n/a	n/a	1	UoHDataOffsetStream
157.115747	1.701006	nback_1	5204.769631	Steps:1 KeyPress:False Matched:True	0	n/a	1	False	True	n/a	n/a	n/a	n-backMarkers
158.396073	0.004000	dropped_samples	5206.049957	Dropped 1 samples	n/a	n/a	n/a	n/a	n/a	n/a	n/a	1	UoHDataOffsetStream
158.816798	1.701006	nback_1	5206.470682	Steps:1 KeyPress:False Matched:True	0	n/a	1	False	True	n/a	n/a	n/a	n-backMarkers
160.517852	1.701006	nback_1	5208.171736	Steps:1 KeyPress:False Matched:False	1	n/a	1	False	False	n/a	n/a	n/a	n-backMarkers
161.277047	0.008000	dropped_samples	5208.930932	Dropped 2 samples	n/a	n/a	n/a	n/a	n/a	n/a	n/a	2	UoHDataOffsetStream
162.218936	1.701006	nback_1	5209.872821	Steps:1 KeyPress:False Matched:False	1	n/a	1	False	False	n/a	n/a	n/a	n-backMarkers
163.921118	1.701006	nback_1	5211.575003	Steps:1 KeyPress:False Matched:False	1	n/a	1	False	False	n/a	n/a	n/a	n-backMarkers
165.622834	1.701006	nback_1	5213.276718	Steps:1 KeyPress:False Matched:False	1	n/a	1	False	False	n/a	n/a	n/a	n-backMarkers
167.324036	1.701006	nback_1	5214.977920	Steps:1 KeyPress:False Matched:False	1	n/a	1	False	False	n/a	n/a	n/a	n-backMarkers
169.025170	1.701006	nback_1	5216.679055	Steps:1 KeyPress:False Matched:False	1	n/a	1	False	False	n/a	n/a	n/a	n-backMarkers
170.727085	1.701006	nback_1	5218.380970	Steps:1 KeyPress:True Matched:False	0	n/a	1	True	False	n/a	n/a	n/a	n-backMarkers
172.428981	1.701006	nback_1	5220.082865	Steps:1 KeyPress:False Matched:True	0	n/a	1	False	True	n/a	n/a	n/a	n-backMarkers
172.458886	0.052000	dropped_samples	5220.112771	Dropped 13 samples	n/a	n/a	n/a	n/a	n/a	n/a	n/a	13	UoHDataOffsetStream
173.212968	0.008000	dropped_samples	5220.866853	Dropped 2 samples	n/a	n/a	n/a	n/a	n/a	n/a	n/a	2	UoHDataOffsetStream
173.314071	0.016000	dropped_samples	5220.967956	Dropped 4 samples	n/a	n/a	n/a	n/a	n/a	n/a	n/a	4	UoHDataOffsetStream
173.423172	0.020000	dropped_samples	5221.077056	Dropped 5 samples	n/a	n/a	n/a	n/a	n/a	n/a	n/a	5	UoHDataOffsetStream
174.475328	0.056000	dropped_samples	5222.129212	Dropped 14 samples	n/a	n/a	n/a	n/a	n/a	n/a	n/a	14	UoHDataOffsetStream
181.136443	1.701006	nback_2	5228.790327	Steps:2 KeyPress:False Matched:False	1	n/a	2	False	False	n/a	n/a	n/a	n-backMarkers
182.837888	1.701006	nback_2	5230.491773	Steps:2 KeyPress:False Matched:False	1	n/a	2	False	False	n/a	n/a	n/a	n-backMarkers
184.540975	1.701006	nback_2	5232.194860	Steps:2 KeyPress:False Matched:False	1	n/a	2	False	False	n/a	n/a	n/a	n-backMarkers
184.602344	0.008000	dropped_samples	5232.256228	Dropped 2 samples	n/a	n/a	n/a	n/a	n/a	n/a	n/a	2	UoHDataOffsetStream
186.241985	1.701006	nback_2	5233.895870	Steps:2 KeyPress:False Matched:False	1	n/a	2	False	False	n/a	n/a	n/a	n-backMarkers
187.943023	1.701006	nback_2	5235.596908	Steps:2 KeyPress:False Matched:True	0	n/a	2	False	True	n/a	n/a	n/a	n-backMarkers
189.642928	1.701006	nback_2	5237.296813	Steps:2 KeyPress:False Matched:False	1	n/a	2	False	False	n/a	n/a	n/a	n-backMarkers
191.343864	1.701006	nback_2	5238.997749	Steps:2 KeyPress:False Matched:False	1	n/a	2	False	False	n/a	n/a	n/a	n-backMarkers
193.044169	1.701006	nback_2	5240.698053	Steps:2 KeyPress:False Matched:False	1	n/a	2	False	False	n/a	n/a	n/a	n-backMarkers
193.625829	0.004000	dropped_samples	5241.279714	Dropped 1 samples	n/a	n/a	n/a	n/a	n/a	n/a	n/a	1	UoHDataOffsetStream
194.745166	1.701006	nback_2	5242.399051	Steps:2 KeyPress:False Matched:False	1	n/a	2	False	False	n/a	n/a	n/a	n-backMarkers
196.316268	0.004000	dropped_samples	5243.970152	Dropped 1 samples	n/a	n/a	n/a	n/a	n/a	n/a	n/a	1	UoHDataOffsetStream
196.446942	1.701006	nback_2	5244.100826	Steps:2 KeyPress:False Matched:False	1	n/a	2	False	False	n/a	n/a	n/a	n-backMarkers
198.147951	1.701006	nback_2	5245.801836	Steps:2 KeyPress:False Matched:False	1	n/a	2	False	False	n/a	n/a	n/a	n-backMarkers
199.724296	0.032000	dropped_samples	5247.378180	Dropped 8 samples	n/a	n/a	n/a	n/a	n/a	n/a	n/a	8	UoHDataOffsetStream
199.850988	1.701006	nback_2	5247.504873	Steps:2 KeyPress:False Matched:False	1	n/a	2	False	False	n/a	n/a	n/a	n-backMarkers
201.551821	1.701006	nback_2	5249.205705	Steps:2 KeyPress:False Matched:False	1	n/a	2	False	False	n/a	n/a	n/a	n-backMarkers
203.252873	1.701006	nback_2	5250.906757	Steps:2 KeyPress:False Matched:False	1	n/a	2	False	False	n/a	n/a	n/a	n-backMarkers
204.953171	1.701006	nback_2	5252.607056	Steps:2 KeyPress:False Matched:False	1	n/a	2	False	False	n/a	n/a	n/a	n-backMarkers
206.655914	1.701006	nback_2	5254.309799	Steps:2 KeyPress:False Matched:False	1	n/a	2	False	False	n/a	n/a	n/a	n-backMarkers
208.357011	1.701006	nback_2	5256.010896	Steps:2 KeyPress:False Matched:False	1	n/a	2	False	False	n/a	n/a	n/a	n-backMarkers
209.324127	0.048000	dropped_samples	5256.978012	Dropped 12 samples	n/a	n/a	n/a	n/a	n/a	n/a	n/a	12	UoHDataOffsetStream
209.951687	0.004000	dropped_samples	5257.605572	Dropped 1 samples	n/a	n/a	n/a	n/a	n/a	n/a	n/a	1	UoHDataOffsetStream
210.058977	1.701006	nback_2	5257.712861	Steps:2 KeyPress:True Matched:False	0	n/a	2	True	False	n/a	n/a	n/a	n-backMarkers
211.291671	0.044000	dropped_samples	5258.945555	Dropped 11 samples	n/a	n/a	n/a	n/a	n/a	n/a	n/a	11	UoHDataOffsetStream
211.759894	1.701006	nback_2	5259.413779	Steps:2 KeyPress:False Matched:False	1	n/a	2	False	False	n/a	n/a	n/a	n-backMarkers
213.462321	1.701006	nback_2	5261.116205	Steps:2 KeyPress:False Matched:False	1	n/a	2	False	False	n/a	n/a	n/a	n-backMarkers
215.705951	0.004000	dropped_samples	5263.359836	Dropped 1 samples	n/a	n/a	n/a	n/a	n/a	n/a	n/a	1	UoHDataOffsetStream
216.189382	0.004000	dropped_samples	5263.843266	Dropped 1 samples	n/a	n/a	n/a	n/a	n/a	n/a	n/a	1	UoHDataOffsetStream
216.431361	0.004000	dropped_samples	5264.085246	Dropped 1 samples	n/a	n/a	n/a	n/a	n/a	n/a	n/a	1	UoHDataOffsetStream
222.160069	1.701006	nback_3	5269.813954	Steps:3 KeyPress:False Matched:False	1	n/a	3	False	False	n/a	n/a	n/a	n-backMarkers
223.861932	1.701006	nback_3	5271.515817	Steps:3 KeyPress:False Matched:False	1	n/a	3	False	False	n/a	n/a	n/a	n-backMarkers
224.685477	0.004000	dropped_samples	5272.339362	Dropped 1 samples	n/a	n/a	n/a	n/a	n/a	n/a	n/a	1	UoHDataOffsetStream
225.563975	1.701006	nback_3	5273.217859	Steps:3 KeyPress:False Matched:False	1	n/a	3	False	False	n/a	n/a	n/a	n-backMarkers
227.265005	1.701006	nback_3	5274.918889	Steps:3 KeyPress:False Matched:False	1	n/a	3	False	False	n/a	n/a	n/a	n-backMarkers
228.966176	1.701006	nback_3	5276.620060	Steps:3 KeyPress:True Matched:False	0	n/a	3	True	False	n/a	n/a	n/a	n-backMarkers
229.822237	0.020000	dropped_samples	5277.476121	Dropped 5 samples	n/a	n/a	n/a	n/a	n/a	n/a	n/a	5	UoHDataOffsetStream
230.668537	1.701006	nback_3	5278.322422	Steps:3 KeyPress:True Matched:False	0	n/a	3	True	False	n/a	n/a	n/a	n-backMarkers
230.828100	0.060000	dropped_samples	5278.481984	Dropped 15 samples	n/a	n/a	n/a	n/a	n/a	n/a	n/a	15	UoHDataOffsetStream
231.366837	0.012000	dropped_samples	5279.020722	Dropped 3 samples	n/a	n/a	n/a	n/a	n/a	n/a	n/a	3	UoHDataOffsetStream
231.980446	0.016000	dropped_samples	5279.634331	Dropped 4 samples	n/a	n/a	n/a	n/a	n/a	n/a	n/a	4	UoHDataOffsetStream
232.370884	1.701006	nback_3	5280.024768	Steps:3 KeyPress:False Matched:False	1	n/a	3	False	False	n/a	n/a	n/a	n-backMarkers
232.623796	0.040000	dropped_samples	5280.277681	Dropped 10 samples	n/a	n/a	n/a	n/a	n/a	n/a	n/a	10	UoHDataOffsetStream
233.469718	0.028000	dropped_samples	5281.123603	Dropped 7 samples	n/a	n/a	n/a	n/a	n/a	n/a	n/a	7	UoHDataOffsetStream
234.071837	1.701006	nback_3	5281.725722	Steps:3 KeyPress:False Matched:False	1	n/a	3	False	False	n/a	n/a	n/a	n-backMarkers
235.291002	0.004000	dropped_samples	5282.944887	Dropped 1 samples	n/a	n/a	n/a	n/a	n/a	n/a	n/a	1	UoHDataOffsetStream
235.773464	1.701006	nback_3	5283.427349	Steps:3 KeyPress:False Matched:False	1	n/a	3	False	False	n/a	n/a	n/a	n-backMarkers
236.106386	0.004000	dropped_samples	5283.760271	Dropped 1 samples	n/a	n/a	n/a	n/a	n/a	n/a	n/a	1	UoHDataOffsetStream
237.474837	1.701006	nback_3	5285.128722	Steps:3 KeyPress:False Matched:False	1	n/a	3	False	False	n/a	n/a	n/a	n-backMarkers
239.176837	1.701006	nback_3	5286.830722	Steps:3 KeyPress:False Matched:False	1	n/a	3	False	False	n/a	n/a	n/a	n-backMarkers
240.877012	1.701006	nback_3	5288.530897	Steps:3 KeyPress:False Matched:False	1	n/a	3	False	False	n/a	n/a	n/a	n-backMarkers
242.578010	1.701006	nback_3	5290.231895	Steps:3 KeyPress:False Matched:False	1	n/a	3	False	False	n/a	n/a	n/a	n-backMarkers
244.278643	1.701006	nback_3	5291.932527	Steps:3 KeyPress:True Matched:True	1	n/a	3	True	True	n/a	n/a	n/a	n-backMarkers
245.662128	0.004000	dropped_samples	5293.316013	Dropped 1 samples	n/a	n/a	n/a	n/a	n/a	n/a	n/a	1	UoHDataOffsetStream
245.978785	1.701006	nback_3	5293.632669	Steps:3 KeyPress:False Matched:False	1	n/a	3	False	False	n/a	n/a	n/a	n-backMarkers
247.434593	0.004000	dropped_samples	5295.088477	Dropped 1 samples	n/a	n/a	n/a	n/a	n/a	n/a	n/a	1	UoHDataOffsetStream
247.679968	1.701006	nback_3	5295.333852	Steps:3 KeyPress:False Matched:False	1	n/a	3	False	False	n/a	n/a	n/a	n-backMarkers
249.380917	1.701006	nback_3	5297.034802	Steps:3 KeyPress:False Matched:False	1	n/a	3	False	False	n/a	n/a	n/a	n-backMarkers
251.082040	1.701006	nback_3	5298.735925	Steps:3 KeyPress:False Matched:False	1	n/a	3	False	False	n/a	n/a	n/a	n-backMarkers
252.782751	1.701006	nback_3	5300.436636	Steps:3 KeyPress:False Matched:False	1	n/a	3	False	False	n/a	n/a	n/a	n-backMarkers
254.482830	1.701006	nback_3	5302.136715	Steps:3 KeyPress:False Matched:False	1	n/a	3	False	False	n/a	n/a	n/a	n-backMarkers
255.354516	0.004000	dropped_samples	5303.008401	Dropped 1 samples	n/a	n/a	n/a	n/a	n/a	n/a	n/a	1	UoHDataOffsetStream
258.202943	0.008000	dropped_samples	5305.856827	Dropped 2 samples	n/a	n/a	n/a	n/a	n/a	n/a	n/a	2	UoHDataOffsetStream
258.403980	0.016000	dropped_samples	5306.057864	Dropped 4 samples	n/a	n/a	n/a	n/a	n/a	n/a	n/a	4	UoHDataOffsetStream
258.405904	0.012000	dropped_samples	5306.059788	Dropped 3 samples	n/a	n/a	n/a	n/a	n/a	n/a	n/a	3	UoHDataOffsetStream
258.430519	0.004000	dropped_samples	5306.084403	Dropped 1 samples	n/a	n/a	n/a	n/a	n/a	n/a	n/a	1	UoHDataOffsetStream
259.324025	0.012000	dropped_samples	5306.977910	Dropped 3 samples	n/a	n/a	n/a	n/a	n/a	n/a	n/a	3	UoHDataOffsetStream
259.338717	0.004000	dropped_samples	5306.992602	Dropped 1 samples	n/a	n/a	n/a	n/a	n/a	n/a	n/a	1	UoHDataOffsetStream
259.436491	0.004000	dropped_samples	5307.090376	Dropped 1 samples	n/a	n/a	n/a	n/a	n/a	n/a	n/a	1	UoHDataOffsetStream
260.402418	0.008000	dropped_samples	5308.056303	Dropped 2 samples	n/a	n/a	n/a	n/a	n/a	n/a	n/a	2	UoHDataOffsetStream
260.447305	0.044000	dropped_samples	5308.101190	Dropped 11 samples	n/a	n/a	n/a	n/a	n/a	n/a	n/a	11	UoHDataOffsetStream
261.790062	0.012000	dropped_samples	5309.443947	Dropped 3 samples	n/a	n/a	n/a	n/a	n/a	n/a	n/a	3	UoHDataOffsetStream
262.219784	0.004000	dropped_samples	5309.873669	Dropped 1 samples	n/a	n/a	n/a	n/a	n/a	n/a	n/a	1	UoHDataOffsetStream
263.198814	1.701006	nback_4	5310.852698	Steps:4 KeyPress:False Matched:True	0	n/a	4	False	True	n/a	n/a	n/a	n-backMarkers
263.806723	0.004000	dropped_samples	5311.460608	Dropped 1 samples	n/a	n/a	n/a	n/a	n/a	n/a	n/a	1	UoHDataOffsetStream
264.899979	1.701006	nback_4	5312.553864	Steps:4 KeyPress:False Matched:False	1	n/a	4	False	False	n/a	n/a	n/a	n-backMarkers
265.579160	0.004000	dropped_samples	5313.233045	Dropped 1 samples	n/a	n/a	n/a	n/a	n/a	n/a	n/a	1	UoHDataOffsetStream
266.600226	1.701006	nback_4	5314.254111	Steps:4 KeyPress:False Matched:False	1	n/a	4	False	False	n/a	n/a	n/a	n-backMarkers
266.638585	0.004000	dropped_samples	5314.292469	Dropped 1 samples	n/a	n/a	n/a	n/a	n/a	n/a	n/a	1	UoHDataOffsetStream
268.302857	1.701006	nback_4	5315.956741	Steps:4 KeyPress:False Matched:False	1	n/a	4	False	False	n/a	n/a	n/a	n-backMarkers
268.656756	0.004000	dropped_samples	5316.310641	Dropped 1 samples	n/a	n/a	n/a	n/a	n/a	n/a	n/a	1	UoHDataOffsetStream
270.003913	1.701006	nback_4	5317.657797	Steps:4 KeyPress:True Matched:True	1	n/a	4	True	True	n/a	n/a	n/a	n-backMarkers
271.704685	1.701006	nback_4	5319.358570	Steps:4 KeyPress:False Matched:True	0	n/a	4	False	True	n/a	n/a	n/a	n-backMarkers
271.947373	0.028000	dropped_samples	5319.601258	Dropped 7 samples	n/a	n/a	n/a	n/a	n/a	n/a	n/a	7	UoHDataOffsetStream
271.967805	0.012000	dropped_samples	5319.621689	Dropped 3 samples	n/a	n/a	n/a	n/a	n/a	n/a	n/a	3	UoHDataOffsetStream
272.937643	0.020000	dropped_samples	5320.591528	Dropped 5 samples	n/a	n/a	n/a	n/a	n/a	n/a	n/a	5	UoHDataOffsetStream
272.971773	0.036000	dropped_samples	5320.625657	Dropped 9 samples	n/a	n/a	n/a	n/a	n/a	n/a	n/a	9	UoHDataOffsetStream
273.406242	1.701006	nback_4	5321.060126	Steps:4 KeyPress:False Matched:False	1	n/a	4	False	False	n/a	n/a	n/a	n-backMarkers
275.108110	1.701006	nback_4	5322.761995	Steps:4 KeyPress:False Matched:False	1	n/a	4	False	False	n/a	n/a	n/a	n-backMarkers
275.227625	0.004000	dropped_samples	5322.881509	Dropped 1 samples	n/a	n/a	n/a	n/a	n/a	n/a	n/a	1	UoHDataOffsetStream
275.711482	0.028000	dropped_samples	5323.365366	Dropped 7 samples	n/a	n/a	n/a	n/a	n/a	n/a	n/a	7	UoHDataOffsetStream
276.810227	1.701006	nback_4	5324.464111	Steps:4 KeyPress:False Matched:False	1	n/a	4	False	False	n/a	n/a	n/a	n-backMarkers
278.513019	1.701006	nback_4	5326.166903	Steps:4 KeyPress:True Matched:True	1	n/a	4	True	True	n/a	n/a	n/a	n-backMarkers
279.597782	0.004000	dropped_samples	5327.251666	Dropped 1 samples	n/a	n/a	n/a	n/a	n/a	n/a	n/a	1	UoHDataOffsetStream
280.216767	1.701006	nback_4	5327.870651	Steps:4 KeyPress:False Matched:True	0	n/a	4	False	True	n/a	n/a	n/a	n-backMarkers
281.918941	1.701006	nback_4	5329.572825	Steps:4 KeyPress:False Matched:False	1	n/a	4	False	False	n/a	n/a	n/a	n-backMarkers
283.619837	1.701006	nback_4	5331.273721	Steps:4 KeyPress:False Matched:False	1	n/a	4	False	False	n/a	n/a	n/a	n-backMarkers
285.320851	1.701006	nback_4	5332.974735	Steps:4 KeyPress:False Matched:False	1	n/a	4	False	False	n/a	n/a	n/a	n-backMarkers
287.021991	1.701006	nback_4	5334.675875	Steps:4 KeyPress:True Matched:True	1	n/a	4	True	True	n/a	n/a	n/a	n-backMarkers
288.723978	1.701006	nback_4	5336.377862	Steps:4 KeyPress:False Matched:True	0	n/a	4	False	True	n/a	n/a	n/a	n-backMarkers
290.426366	1.701006	nback_4	5338.080251	Steps:4 KeyPress:False Matched:False	1	n/a	4	False	False	n/a	n/a	n/a	n-backMarkers
292.128645	1.701006	nback_4	5339.782530	Steps:4 KeyPress:False Matched:False	1	n/a	4	False	False	n/a	n/a	n/a	n-backMarkers
293.829027	1.701006	nback_4	5341.482911	Steps:4 KeyPress:True Matched:False	0	n/a	4	True	False	n/a	n/a	n/a	n-backMarkers
295.530864	1.701006	nback_4	5343.184749	Steps:4 KeyPress:True Matched:True	1	n/a	4	True	True	n/a	n/a	n/a	n-backMarkers
296.234243	0.000000	finished_tutorial_n-back	5343.888128	Finished tutorial n-back	n/a	n/a	n/a	n/a	n/a	n/a	n/a	n/a	n-backMarkers
300.427852	0.004000	dropped_samples	5348.081736	Dropped 1 samples	n/a	n/a	n/a	n/a	n/a	n/a	n/a	1	UoHDataOffsetStream
300.476744	0.004000	dropped_samples	5348.130629	Dropped 1 samples	n/a	n/a	n/a	n/a	n/a	n/a	n/a	1	UoHDataOffsetStream
309.739454	0.004000	dropped_samples	5357.393338	Dropped 1 samples	n/a	n/a	n/a	n/a	n/a	n/a	n/a	1	UoHDataOffsetStream
311.565601	0.004000	dropped_samples	5359.219486	Dropped 1 samples	n/a	n/a	n/a	n/a	n/a	n/a	n/a	1	UoHDataOffsetStream
312.528193	0.004000	dropped_samples	5360.182078	Dropped 1 samples	n/a	n/a	n/a	n/a	n/a	n/a	n/a	1	UoHDataOffsetStream
315.115452	0.024000	dropped_samples	5362.769337	Dropped 6 samples	n/a	n/a	n/a	n/a	n/a	n/a	n/a	6	UoHDataOffsetStream
320.686773	0.004000	dropped_samples	5368.340658	Dropped 1 samples	n/a	n/a	n/a	n/a	n/a	n/a	n/a	1	UoHDataOffsetStream
321.980687	0.004000	dropped_samples	5369.634572	Dropped 1 samples	n/a	n/a	n/a	n/a	n/a	n/a	n/a	1	UoHDataOffsetStream
324.524642	0.004000	dropped_samples	5372.178527	Dropped 1 samples	n/a	n/a	n/a	n/a	n/a	n/a	n/a	1	UoHDataOffsetStream
334.988567	0.004000	dropped_samples	5382.642452	Dropped 1 samples	n/a	n/a	n/a	n/a	n/a	n/a	n/a	1	UoHDataOffsetStream
338.015923	0.004000	dropped_samples	5385.669808	Dropped 1 samples	n/a	n/a	n/a	n/a	n/a	n/a	n/a	1	UoHDataOffsetStream
339.788339	0.008000	dropped_samples	5387.442223	Dropped 2 samples	n/a	n/a	n/a	n/a	n/a	n/a	n/a	2	UoHDataOffsetStream
342.429965	0.012000	dropped_samples	5390.083850	Dropped 3 samples	n/a	n/a	n/a	n/a	n/a	n/a	n/a	3	UoHDataOffsetStream
343.484654	0.004000	dropped_samples	5391.138538	Dropped 1 samples	n/a	n/a	n/a	n/a	n/a	n/a	n/a	1	UoHDataOffsetStream
346.941709	0.004000	dropped_samples	5394.595594	Dropped 1 samples	n/a	n/a	n/a	n/a	n/a	n/a	n/a	1	UoHDataOffsetStream
347.132141	0.012000	dropped_samples	5394.786026	Dropped 3 samples	n/a	n/a	n/a	n/a	n/a	n/a	n/a	3	UoHDataOffsetStream
352.645811	0.012000	dropped_samples	5400.299695	Dropped 3 samples	n/a	n/a	n/a	n/a	n/a	n/a	n/a	3	UoHDataOffsetStream
352.647103	0.004000	dropped_samples	5400.300988	Dropped 1 samples	n/a	n/a	n/a	n/a	n/a	n/a	n/a	1	UoHDataOffsetStream
352.703433	0.044000	dropped_samples	5400.357317	Dropped 11 samples	n/a	n/a	n/a	n/a	n/a	n/a	n/a	11	UoHDataOffsetStream
353.439325	0.016000	dropped_samples	5401.093210	Dropped 4 samples	n/a	n/a	n/a	n/a	n/a	n/a	n/a	4	UoHDataOffsetStream
354.626081	0.004000	dropped_samples	5402.279966	Dropped 1 samples	n/a	n/a	n/a	n/a	n/a	n/a	n/a	1	UoHDataOffsetStream
354.626687	0.028000	dropped_samples	5402.280572	Dropped 7 samples	n/a	n/a	n/a	n/a	n/a	n/a	n/a	7	UoHDataOffsetStream
354.627549	0.012000	dropped_samples	5402.281433	Dropped 3 samples	n/a	n/a	n/a	n/a	n/a	n/a	n/a	3	UoHDataOffsetStream
358.992557	0.004000	dropped_samples	5406.646442	Dropped 1 samples	n/a	n/a	n/a	n/a	n/a	n/a	n/a	1	UoHDataOffsetStream
363.504266	0.004000	dropped_samples	5411.158151	Dropped 1 samples	n/a	n/a	n/a	n/a	n/a	n/a	n/a	1	UoHDataOffsetStream
366.477929	0.004000	dropped_samples	5414.131814	Dropped 1 samples	n/a	n/a	n/a	n/a	n/a	n/a	n/a	1	UoHDataOffsetStream
369.983782	0.004000	dropped_samples	5417.637666	Dropped 1 samples	n/a	n/a	n/a	n/a	n/a	n/a	n/a	1	UoHDataOffsetStream
370.462245	0.004000	dropped_samples	5418.116130	Dropped 1 samples	n/a	n/a	n/a	n/a	n/a	n/a	n/a	1	UoHDataOffsetStream
379.388115	0.012000	dropped_samples	5427.042000	Dropped 3 samples	n/a	n/a	n/a	n/a	n/a	n/a	n/a	3	UoHDataOffsetStream
381.278010	0.028000	dropped_samples	5428.931894	Dropped 7 samples	n/a	n/a	n/a	n/a	n/a	n/a	n/a	7	UoHDataOffsetStream
381.311982	0.004000	dropped_samples	5428.965867	Dropped 1 samples	n/a	n/a	n/a	n/a	n/a	n/a	n/a	1	UoHDataOffsetStream
382.317786	0.052000	dropped_samples	5429.971670	Dropped 13 samples	n/a	n/a	n/a	n/a	n/a	n/a	n/a	13	UoHDataOffsetStream
383.372525	0.060000	dropped_samples	5431.026410	Dropped 15 samples	n/a	n/a	n/a	n/a	n/a	n/a	n/a	15	UoHDataOffsetStream
386.448651	0.004000	dropped_samples	5434.102535	Dropped 1 samples	n/a	n/a	n/a	n/a	n/a	n/a	n/a	1	UoHDataOffsetStream
386.918235	0.016000	dropped_samples	5434.572120	Dropped 4 samples	n/a	n/a	n/a	n/a	n/a	n/a	n/a	4	UoHDataOffsetStream
387.024848	0.020000	dropped_samples	5434.678733	Dropped 5 samples	n/a	n/a	n/a	n/a	n/a	n/a	n/a	5	UoHDataOffsetStream
390.911560	0.004000	dropped_samples	5438.565444	Dropped 1 samples	n/a	n/a	n/a	n/a	n/a	n/a	n/a	1	UoHDataOffsetStream
392.303350	0.004000	dropped_samples	5439.957235	Dropped 1 samples	n/a	n/a	n/a	n/a	n/a	n/a	n/a	1	UoHDataOffsetStream
393.020966	0.012000	dropped_samples	5440.674851	Dropped 3 samples	n/a	n/a	n/a	n/a	n/a	n/a	n/a	3	UoHDataOffsetStream
395.276857	0.004000	dropped_samples	5442.930742	Dropped 1 samples	n/a	n/a	n/a	n/a	n/a	n/a	n/a	1	UoHDataOffsetStream
400.321153	0.004000	dropped_samples	5447.975037	Dropped 1 samples	n/a	n/a	n/a	n/a	n/a	n/a	n/a	1	UoHDataOffsetStream
404.639732	0.020000	dropped_samples	5452.293617	Dropped 5 samples	n/a	n/a	n/a	n/a	n/a	n/a	n/a	5	UoHDataOffsetStream
405.865491	0.028000	dropped_samples	5453.519376	Dropped 7 samples	n/a	n/a	n/a	n/a	n/a	n/a	n/a	7	UoHDataOffsetStream
405.936059	0.008000	dropped_samples	5453.589944	Dropped 2 samples	n/a	n/a	n/a	n/a	n/a	n/a	n/a	2	UoHDataOffsetStream
406.586181	0.004000	dropped_samples	5454.240065	Dropped 1 samples	n/a	n/a	n/a	n/a	n/a	n/a	n/a	1	UoHDataOffsetStream
406.804639	0.012000	dropped_samples	5454.458524	Dropped 3 samples	n/a	n/a	n/a	n/a	n/a	n/a	n/a	3	UoHDataOffsetStream
407.807301	0.032000	dropped_samples	5455.461186	Dropped 8 samples	n/a	n/a	n/a	n/a	n/a	n/a	n/a	8	UoHDataOffsetStream
408.191822	0.004000	dropped_samples	5455.845706	Dropped 1 samples	n/a	n/a	n/a	n/a	n/a	n/a	n/a	1	UoHDataOffsetStream
410.540538	0.012000	dropped_samples	5458.194423	Dropped 3 samples	n/a	n/a	n/a	n/a	n/a	n/a	n/a	3	UoHDataOffsetStream
414.524957	0.012000	dropped_samples	5462.178842	Dropped 3 samples	n/a	n/a	n/a	n/a	n/a	n/a	n/a	3	UoHDataOffsetStream
416.253457	0.008000	dropped_samples	5463.907342	Dropped 2 samples	n/a	n/a	n/a	n/a	n/a	n/a	n/a	2	UoHDataOffsetStream
419.280732	0.004000	dropped_samples	5466.934617	Dropped 1 samples	n/a	n/a	n/a	n/a	n/a	n/a	n/a	1	UoHDataOffsetStream
422.303211	0.008000	dropped_samples	5469.957096	Dropped 2 samples	n/a	n/a	n/a	n/a	n/a	n/a	n/a	2	UoHDataOffsetStream
423.885159	0.004000	dropped_samples	5471.539044	Dropped 1 samples	n/a	n/a	n/a	n/a	n/a	n/a	n/a	1	UoHDataOffsetStream
425.809149	0.004000	dropped_samples	5473.463033	Dropped 1 samples	n/a	n/a	n/a	n/a	n/a	n/a	n/a	1	UoHDataOffsetStream
430.272035	0.004000	dropped_samples	5477.925920	Dropped 1 samples	n/a	n/a	n/a	n/a	n/a	n/a	n/a	1	UoHDataOffsetStream
430.989671	0.004000	dropped_samples	5478.643555	Dropped 1 samples	n/a	n/a	n/a	n/a	n/a	n/a	n/a	1	UoHDataOffsetStream
433.300381	0.000000	started_n-back	5480.954266	Started n-back	n/a	n/a	n/a	n/a	n/a	n/a	n/a	n/a	n-backMarkers
441.299525	1.701006	nback_1	5488.953410	Steps:1 KeyPress:False Matched:False	1	n/a	1	False	False	n/a	n/a	n/a	n-backMarkers
441.756243	0.004000	dropped_samples	5489.410127	Dropped 1 samples	n/a	n/a	n/a	n/a	n/a	n/a	n/a	1	UoHDataOffsetStream
441.981037	0.004000	dropped_samples	5489.634922	Dropped 1 samples	n/a	n/a	n/a	n/a	n/a	n/a	n/a	1	UoHDataOffsetStream
443.000571	1.701006	nback_1	5490.654456	Steps:1 KeyPress:True Matched:False	0	n/a	1	True	False	n/a	n/a	n/a	n-backMarkers
444.701505	1.701006	nback_1	5492.355390	Steps:1 KeyPress:False Matched:False	1	n/a	1	False	False	n/a	n/a	n/a	n-backMarkers
446.402388	1.701006	nback_1	5494.056273	Steps:1 KeyPress:True Matched:False	0	n/a	1	True	False	n/a	n/a	n/a	n-backMarkers
447.889276	0.004000	dropped_samples	5495.543161	Dropped 1 samples	n/a	n/a	n/a	n/a	n/a	n/a	n/a	1	UoHDataOffsetStream
448.103423	1.701006	nback_1	5495.757308	Steps:1 KeyPress:False Matched:True	0	n/a	1	False	True	n/a	n/a	n/a	n-backMarkers
449.804505	1.701006	nback_1	5497.458389	Steps:1 KeyPress:False Matched:True	0	n/a	1	False	True	n/a	n/a	n/a	n-backMarkers
451.506437	1.701006	nback_1	5499.160322	Steps:1 KeyPress:False Matched:False	1	n/a	1	False	False	n/a	n/a	n/a	n-backMarkers
453.206997	1.701006	nback_1	5500.860881	Steps:1 KeyPress:False Matched:False	1	n/a	1	False	False	n/a	n/a	n/a	n-backMarkers
454.907348	1.701006	nback_1	5502.561232	Steps:1 KeyPress:False Matched:False	1	n/a	1	False	False	n/a	n/a	n/a	n-backMarkers
456.607592	1.701006	nback_1	5504.261477	Steps:1 KeyPress:True Matched:False	0	n/a	1	True	False	n/a	n/a	n/a	n-backMarkers
456.673493	0.004000	dropped_samples	5504.327378	Dropped 1 samples	n/a	n/a	n/a	n/a	n/a	n/a	n/a	1	UoHDataOffsetStream
458.309516	1.701006	nback_1	5505.963400	Steps:1 KeyPress:False Matched:False	1	n/a	1	False	False	n/a	n/a	n/a	n-backMarkers
460.010370	1.701006	nback_1	5507.664254	Steps:1 KeyPress:True Matched:False	0	n/a	1	True	False	n/a	n/a	n/a	n-backMarkers
461.711982	1.701006	nback_1	5509.365866	Steps:1 KeyPress:False Matched:True	0	n/a	1	False	True	n/a	n/a	n/a	n-backMarkers
463.412697	1.701006	nback_1	5511.066582	Steps:1 KeyPress:False Matched:True	0	n/a	1	False	True	n/a	n/a	n/a	n-backMarkers
464.110014	0.004000	dropped_samples	5511.763899	Dropped 1 samples	n/a	n/a	n/a	n/a	n/a	n/a	n/a	1	UoHDataOffsetStream
465.114364	1.701006	nback_1	5512.768248	Steps:1 KeyPress:False Matched:False	1	n/a	1	False	False	n/a	n/a	n/a	n-backMarkers
466.815367	1.701006	nback_1	5514.469251	Steps:1 KeyPress:True Matched:False	0	n/a	1	True	False	n/a	n/a	n/a	n-backMarkers
468.516388	1.701006	nback_1	5516.170273	Steps:1 KeyPress:False Matched:False	1	n/a	1	False	False	n/a	n/a	n/a	n-backMarkers
468.621723	0.004000	dropped_samples	5516.275608	Dropped 1 samples	n/a	n/a	n/a	n/a	n/a	n/a	n/a	1	UoHDataOffsetStream
470.216644	1.701006	nback_1	5517.870529	Steps:1 KeyPress:True Matched:False	0	n/a	1	True	False	n/a	n/a	n/a	n-backMarkers
471.600320	0.004000	dropped_samples	5519.254204	Dropped 1 samples	n/a	n/a	n/a	n/a	n/a	n/a	n/a	1	UoHDataOffsetStream
471.917496	1.701006	nback_1	5519.571381	Steps:1 KeyPress:False Matched:False	1	n/a	1	False	False	n/a	n/a	n/a	n-backMarkers
473.617907	1.701006	nback_1	5521.271792	Steps:1 KeyPress:True Matched:False	0	n/a	1	True	False	n/a	n/a	n/a	n-backMarkers
474.095402	0.008000	dropped_samples	5521.749287	Dropped 2 samples	n/a	n/a	n/a	n/a	n/a	n/a	n/a	2	UoHDataOffsetStream
474.622748	0.004000	dropped_samples	5522.276633	Dropped 1 samples	n/a	n/a	n/a	n/a	n/a	n/a	n/a	1	UoHDataOffsetStream
475.319384	1.701006	nback_1	5522.973269	Steps:1 KeyPress:False Matched:True	0	n/a	1	False	True	n/a	n/a	n/a	n-backMarkers
477.020447	1.701006	nback_1	5524.674331	Steps:1 KeyPress:False Matched:True	0	n/a	1	False	True	n/a	n/a	n/a	n-backMarkers
478.721426	1.701006	nback_1	5526.375311	Steps:1 KeyPress:False Matched:False	1	n/a	1	False	False	n/a	n/a	n/a	n-backMarkers
480.422504	1.701006	nback_1	5528.076389	Steps:1 KeyPress:True Matched:False	0	n/a	1	True	False	n/a	n/a	n/a	n-backMarkers
482.123535	1.701006	nback_1	5529.777419	Steps:1 KeyPress:False Matched:False	1	n/a	1	False	False	n/a	n/a	n/a	n-backMarkers
483.825263	1.701006	nback_1	5531.479148	Steps:1 KeyPress:True Matched:False	0	n/a	1	True	False	n/a	n/a	n/a	n-backMarkers
485.526443	1.701006	nback_1	5533.180328	Steps:1 KeyPress:False Matched:False	1	n/a	1	False	False	n/a	n/a	n/a	n-backMarkers
487.005533	0.004000	dropped_samples	5534.659418	Dropped 1 samples	n/a	n/a	n/a	n/a	n/a	n/a	n/a	1	UoHDataOffsetStream
487.228350	1.701006	nback_1	5534.882234	Steps:1 KeyPress:True Matched:False	0	n/a	1	True	False	n/a	n/a	n/a	n-backMarkers
488.928394	1.701006	nback_1	5536.582279	Steps:1 KeyPress:False Matched:True	0	n/a	1	False	True	n/a	n/a	n/a	n-backMarkers
489.310294	0.008000	dropped_samples	5536.964179	Dropped 2 samples	n/a	n/a	n/a	n/a	n/a	n/a	n/a	2	UoHDataOffsetStream
490.629700	1.701006	nback_1	5538.283584	Steps:1 KeyPress:False Matched:True	0	n/a	1	False	True	n/a	n/a	n/a	n-backMarkers
492.330202	1.701006	nback_1	5539.984086	Steps:1 KeyPress:False Matched:False	1	n/a	1	False	False	n/a	n/a	n/a	n-backMarkers
494.030467	1.701006	nback_1	5541.684352	Steps:1 KeyPress:False Matched:False	1	n/a	1	False	False	n/a	n/a	n/a	n-backMarkers
495.731301	1.701006	nback_1	5543.385186	Steps:1 KeyPress:True Matched:False	0	n/a	1	True	False	n/a	n/a	n/a	n-backMarkers
497.431446	1.701006	nback_1	5545.085331	Steps:1 KeyPress:False Matched:True	0	n/a	1	False	True	n/a	n/a	n/a	n-backMarkers
499.132230	1.701006	nback_1	5546.786115	Steps:1 KeyPress:False Matched:False	1	n/a	1	False	False	n/a	n/a	n/a	n-backMarkers
500.350185	0.004000	dropped_samples	5548.004070	Dropped 1 samples	n/a	n/a	n/a	n/a	n/a	n/a	n/a	1	UoHDataOffsetStream
500.833589	1.701006	nback_1	5548.487474	Steps:1 KeyPress:True Matched:False	0	n/a	1	True	False	n/a	n/a	n/a	n-backMarkers
502.534695	1.701006	nback_1	5550.188580	Steps:1 KeyPress:False Matched:False	1	n/a	1	False	False	n/a	n/a	n/a	n-backMarkers
504.188080	0.044000	dropped_samples	5551.841965	Dropped 11 samples	n/a	n/a	n/a	n/a	n/a	n/a	n/a	11	UoHDataOffsetStream
504.236455	1.701006	nback_1	5551.890340	Steps:1 KeyPress:True Matched:False	0	n/a	1	True	False	n/a	n/a	n/a	n-backMarkers
504.965223	0.004000	dropped_samples	5552.619107	Dropped 1 samples	n/a	n/a	n/a	n/a	n/a	n/a	n/a	1	UoHDataOffsetStream
505.065656	0.016000	dropped_samples	5552.719540	Dropped 4 samples	n/a	n/a	n/a	n/a	n/a	n/a	n/a	4	UoHDataOffsetStream
505.183908	0.008000	dropped_samples	5552.837793	Dropped 2 samples	n/a	n/a	n/a	n/a	n/a	n/a	n/a	2	UoHDataOffsetStream
505.247847	0.012000	dropped_samples	5552.901732	Dropped 3 samples	n/a	n/a	n/a	n/a	n/a	n/a	n/a	3	UoHDataOffsetStream
505.937399	1.701006	nback_1	5553.591284	Steps:1 KeyPress:False Matched:False	1	n/a	1	False	False	n/a	n/a	n/a	n-backMarkers
506.188769	0.012000	dropped_samples	5553.842654	Dropped 3 samples	n/a	n/a	n/a	n/a	n/a	n/a	n/a	3	UoHDataOffsetStream
506.253987	0.024000	dropped_samples	5553.907872	Dropped 6 samples	n/a	n/a	n/a	n/a	n/a	n/a	n/a	6	UoHDataOffsetStream
507.638369	1.701006	nback_1	5555.292254	Steps:1 KeyPress:True Matched:False	0	n/a	1	True	False	n/a	n/a	n/a	n-backMarkers
508.802514	0.004000	dropped_samples	5556.456399	Dropped 1 samples	n/a	n/a	n/a	n/a	n/a	n/a	n/a	1	UoHDataOffsetStream
509.338197	1.701006	nback_1	5556.992081	Steps:1 KeyPress:False Matched:False	1	n/a	1	False	False	n/a	n/a	n/a	n-backMarkers
511.038399	1.701006	nback_1	5558.692283	Steps:1 KeyPress:True Matched:False	0	n/a	1	True	False	n/a	n/a	n/a	n-backMarkers
512.739347	1.701006	nback_1	5560.393231	Steps:1 KeyPress:False Matched:False	1	n/a	1	False	False	n/a	n/a	n/a	n-backMarkers
514.439497	1.701006	nback_1	5562.093382	Steps:1 KeyPress:True Matched:False	0	n/a	1	True	False	n/a	n/a	n/a	n-backMarkers
514.559417	0.008000	dropped_samples	5562.213301	Dropped 2 samples	n/a	n/a	n/a	n/a	n/a	n/a	n/a	2	UoHDataOffsetStream
515.137280	0.004000	dropped_samples	5562.791165	Dropped 1 samples	n/a	n/a	n/a	n/a	n/a	n/a	n/a	1	UoHDataOffsetStream
516.140424	1.701006	nback_1	5563.794308	Steps:1 KeyPress:False Matched:False	1	n/a	1	False	False	n/a	n/a	n/a	n-backMarkers
516.336764	0.004000	dropped_samples	5563.990648	Dropped 1 samples	n/a	n/a	n/a	n/a	n/a	n/a	n/a	1	UoHDataOffsetStream
517.640460	0.008000	dropped_samples	5565.294345	Dropped 2 samples	n/a	n/a	n/a	n/a	n/a	n/a	n/a	2	UoHDataOffsetStream
517.841574	1.701006	nback_1	5565.495458	Steps:1 KeyPress:True Matched:False	0	n/a	1	True	False	n/a	n/a	n/a	n-backMarkers
519.542342	1.701006	nback_1	5567.196227	Steps:1 KeyPress:False Matched:True	0	n/a	1	False	True	n/a	n/a	n/a	n-backMarkers
521.242477	1.701006	nback_1	5568.896362	Steps:1 KeyPress:False Matched:False	1	n/a	1	False	False	n/a	n/a	n/a	n-backMarkers
522.944250	1.701006	nback_1	5570.598135	Steps:1 KeyPress:True Matched:False	0	n/a	1	True	False	n/a	n/a	n/a	n-backMarkers
524.645362	1.701006	nback_1	5572.299247	Steps:1 KeyPress:False Matched:False	1	n/a	1	False	False	n/a	n/a	n/a	n-backMarkers
526.346717	1.701006	nback_1	5574.000602	Steps:1 KeyPress:True Matched:False	0	n/a	1	True	False	n/a	n/a	n/a	n-backMarkers
528.047539	1.701006	nback_1	5575.701423	Steps:1 KeyPress:False Matched:False	1	n/a	1	False	False	n/a	n/a	n/a	n-backMarkers
529.749259	1.701006	nback_1	5577.403144	Steps:1 KeyPress:True Matched:False	0	n/a	1	True	False	n/a	n/a	n/a	n-backMarkers
531.449421	1.701006	nback_1	5579.103305	Steps:1 KeyPress:False Matched:True	0	n/a	1	False	True	n/a	n/a	n/a	n-backMarkers
533.150504	1.701006	nback_1	5580.804389	Steps:1 KeyPress:False Matched:True	0	n/a	1	False	True	n/a	n/a	n/a	n-backMarkers
534.852432	1.701006	nback_1	5582.506316	Steps:1 KeyPress:False Matched:False	1	n/a	1	False	False	n/a	n/a	n/a	n-backMarkers
535.057597	0.012000	dropped_samples	5582.711482	Dropped 3 samples	n/a	n/a	n/a	n/a	n/a	n/a	n/a	3	UoHDataOffsetStream
536.112188	0.012000	dropped_samples	5583.766072	Dropped 3 samples	n/a	n/a	n/a	n/a	n/a	n/a	n/a	3	UoHDataOffsetStream
536.554174	1.701006	nback_1	5584.208058	Steps:1 KeyPress:False Matched:False	1	n/a	1	False	False	n/a	n/a	n/a	n-backMarkers
538.254533	1.701006	nback_1	5585.908417	Steps:1 KeyPress:True Matched:False	0	n/a	1	True	False	n/a	n/a	n/a	n-backMarkers
539.956175	1.701006	nback_1	5587.610059	Steps:1 KeyPress:False Matched:False	1	n/a	1	False	False	n/a	n/a	n/a	n-backMarkers
541.657566	1.701006	nback_1	5589.311451	Steps:1 KeyPress:True Matched:False	0	n/a	1	True	False	n/a	n/a	n/a	n-backMarkers
543.358935	1.701006	nback_1	5591.012820	Steps:1 KeyPress:False Matched:True	0	n/a	1	False	True	n/a	n/a	n/a	n-backMarkers
545.059349	1.701006	nback_1	5592.713234	Steps:1 KeyPress:False Matched:True	0	n/a	1	False	True	n/a	n/a	n/a	n-backMarkers
546.760323	1.701006	nback_1	5594.414208	Steps:1 KeyPress:False Matched:False	1	n/a	1	False	False	n/a	n/a	n/a	n-backMarkers
547.249968	0.004000	dropped_samples	5594.903852	Dropped 1 samples	n/a	n/a	n/a	n/a	n/a	n/a	n/a	1	UoHDataOffsetStream
548.461696	1.701006	nback_1	5596.115581	Steps:1 KeyPress:True Matched:False	0	n/a	1	True	False	n/a	n/a	n/a	n-backMarkers
550.162307	1.701006	nback_1	5597.816191	Steps:1 KeyPress:False Matched:False	1	n/a	1	False	False	n/a	n/a	n/a	n-backMarkers
551.863467	1.701006	nback_1	5599.517352	Steps:1 KeyPress:True Matched:False	0	n/a	1	True	False	n/a	n/a	n/a	n-backMarkers
553.565628	1.701006	nback_1	5601.219513	Steps:1 KeyPress:False Matched:False	1	n/a	1	False	False	n/a	n/a	n/a	n-backMarkers
555.266384	1.701006	nback_1	5602.920269	Steps:1 KeyPress:True Matched:False	0	n/a	1	True	False	n/a	n/a	n/a	n-backMarkers
556.967216	1.701006	nback_1	5604.621101	Steps:1 KeyPress:False Matched:True	0	n/a	1	False	True	n/a	n/a	n/a	n-backMarkers
558.668257	1.701006	nback_1	5606.322141	Steps:1 KeyPress:False Matched:True	0	n/a	1	False	True	n/a	n/a	n/a	n-backMarkers
560.370047	1.701006	nback_1	5608.023932	Steps:1 KeyPress:True Matched:False	0	n/a	1	True	False	n/a	n/a	n/a	n-backMarkers
562.070447	1.701006	nback_1	5609.724332	Steps:1 KeyPress:True Matched:False	0	n/a	1	True	False	n/a	n/a	n/a	n-backMarkers
563.772214	1.701006	nback_1	5611.426099	Steps:1 KeyPress:True Matched:True	1	n/a	1	True	True	n/a	n/a	n/a	n-backMarkers
565.473548	1.701006	nback_1	5613.127433	Steps:1 KeyPress:False Matched:True	0	n/a	1	False	True	n/a	n/a	n/a	n-backMarkers
567.174308	1.701006	nback_1	5614.828193	Steps:1 KeyPress:False Matched:False	1	n/a	1	False	False	n/a	n/a	n/a	n-backMarkers
568.558611	0.004000	dropped_samples	5616.212496	Dropped 1 samples	n/a	n/a	n/a	n/a	n/a	n/a	n/a	1	UoHDataOffsetStream
568.875405	1.701006	nback_1	5616.529290	Steps:1 KeyPress:True Matched:False	0	n/a	1	True	False	n/a	n/a	n/a	n-backMarkers
570.575492	1.701006	nback_1	5618.229377	Steps:1 KeyPress:False Matched:False	1	n/a	1	False	False	n/a	n/a	n/a	n-backMarkers
572.276852	1.701006	nback_1	5619.930737	Steps:1 KeyPress:True Matched:False	0	n/a	1	True	False	n/a	n/a	n/a	n-backMarkers
573.978203	1.701006	nback_1	5621.632087	Steps:1 KeyPress:False Matched:True	0	n/a	1	False	True	n/a	n/a	n/a	n-backMarkers
575.678720	1.701006	nback_1	5623.332605	Steps:1 KeyPress:False Matched:False	1	n/a	1	False	False	n/a	n/a	n/a	n-backMarkers
577.379238	1.701006	nback_1	5625.033122	Steps:1 KeyPress:True Matched:False	0	n/a	1	True	False	n/a	n/a	n/a	n-backMarkers
578.495106	0.004000	dropped_samples	5626.148990	Dropped 1 samples	n/a	n/a	n/a	n/a	n/a	n/a	n/a	1	UoHDataOffsetStream
579.080505	1.701006	nback_1	5626.734390	Steps:1 KeyPress:False Matched:True	0	n/a	1	False	True	n/a	n/a	n/a	n-backMarkers
580.130938	0.004000	dropped_samples	5627.784823	Dropped 1 samples	n/a	n/a	n/a	n/a	n/a	n/a	n/a	1	UoHDataOffsetStream
580.782221	1.701006	nback_1	5628.436105	Steps:1 KeyPress:False Matched:True	0	n/a	1	False	True	n/a	n/a	n/a	n-backMarkers
582.483324	1.701006	nback_1	5630.137208	Steps:1 KeyPress:False Matched:False	1	n/a	1	False	False	n/a	n/a	n/a	n-backMarkers
584.185106	1.701006	nback_1	5631.838991	Steps:1 KeyPress:False Matched:False	1	n/a	1	False	False	n/a	n/a	n/a	n-backMarkers
585.885501	1.701006	nback_1	5633.539385	Steps:1 KeyPress:False Matched:False	1	n/a	1	False	False	n/a	n/a	n/a	n-backMarkers
586.991277	0.004000	dropped_samples	5634.645161	Dropped 1 samples	n/a	n/a	n/a	n/a	n/a	n/a	n/a	1	UoHDataOffsetStream
587.587153	1.701006	nback_1	5635.241037	Steps:1 KeyPress:True Matched:False	0	n/a	1	True	False	n/a	n/a	n/a	n-backMarkers
588.915059	0.008000	dropped_samples	5636.568944	Dropped 2 samples	n/a	n/a	n/a	n/a	n/a	n/a	n/a	2	UoHDataOffsetStream
589.288352	1.701006	nback_1	5636.942236	Steps:1 KeyPress:False Matched:False	1	n/a	1	False	False	n/a	n/a	n/a	n-backMarkers
590.988583	1.701006	nback_1	5638.642468	Steps:1 KeyPress:True Matched:False	0	n/a	1	True	False	n/a	n/a	n/a	n-backMarkers
592.690350	1.701006	nback_1	5640.344234	Steps:1 KeyPress:False Matched:False	1	n/a	1	False	False	n/a	n/a	n/a	n-backMarkers
594.391456	1.701006	nback_1	5642.045340	Steps:1 KeyPress:True Matched:False	0	n/a	1	True	False	n/a	n/a	n/a	n-backMarkers
596.092428	1.701006	nback_1	5643.746313	Steps:1 KeyPress:False Matched:False	1	n/a	1	False	False	n/a	n/a	n/a	n-backMarkers
597.792620	1.701006	nback_1	5645.446505	Steps:1 KeyPress:True Matched:False	0	n/a	1	True	False	n/a	n/a	n/a	n-backMarkers
599.493623	1.701006	nback_1	5647.147507	Steps:1 KeyPress:True Matched:True	1	n/a	1	True	True	n/a	n/a	n/a	n-backMarkers
601.194909	1.701006	nback_1	5648.848794	Steps:1 KeyPress:False Matched:False	1	n/a	1	False	False	n/a	n/a	n/a	n-backMarkers
602.896219	1.701006	nback_1	5650.550103	Steps:1 KeyPress:True Matched:False	0	n/a	1	True	False	n/a	n/a	n/a	n-backMarkers
604.596967	1.701006	nback_1	5652.250852	Steps:1 KeyPress:False Matched:False	1	n/a	1	False	False	n/a	n/a	n/a	n-backMarkers
605.663157	0.004000	dropped_samples	5653.317042	Dropped 1 samples	n/a	n/a	n/a	n/a	n/a	n/a	n/a	1	UoHDataOffsetStream
606.297822	1.701006	nback_1	5653.951707	Steps:1 KeyPress:True Matched:False	0	n/a	1	True	False	n/a	n/a	n/a	n-backMarkers
607.826266	0.004000	dropped_samples	5655.480150	Dropped 1 samples	n/a	n/a	n/a	n/a	n/a	n/a	n/a	1	UoHDataOffsetStream
607.998182	1.701006	nback_1	5655.652067	Steps:1 KeyPress:False Matched:True	0	n/a	1	False	True	n/a	n/a	n/a	n-backMarkers
609.698303	1.701006	nback_1	5657.352188	Steps:1 KeyPress:False Matched:False	1	n/a	1	False	False	n/a	n/a	n/a	n-backMarkers
611.764300	0.004000	dropped_samples	5659.418185	Dropped 1 samples	n/a	n/a	n/a	n/a	n/a	n/a	n/a	1	UoHDataOffsetStream
611.810668	0.012000	dropped_samples	5659.464553	Dropped 3 samples	n/a	n/a	n/a	n/a	n/a	n/a	n/a	3	UoHDataOffsetStream
614.735481	0.004000	dropped_samples	5662.389365	Dropped 1 samples	n/a	n/a	n/a	n/a	n/a	n/a	n/a	1	UoHDataOffsetStream
616.371239	0.008000	dropped_samples	5664.025123	Dropped 2 samples	n/a	n/a	n/a	n/a	n/a	n/a	n/a	2	UoHDataOffsetStream
618.387273	1.701006	nback_2	5666.041157	Steps:2 KeyPress:False Matched:False	1	n/a	2	False	False	n/a	n/a	n/a	n-backMarkers
620.088364	1.701006	nback_2	5667.742249	Steps:2 KeyPress:False Matched:False	1	n/a	2	False	False	n/a	n/a	n/a	n-backMarkers
621.790112	1.701006	nback_2	5669.443997	Steps:2 KeyPress:True Matched:False	0	n/a	2	True	False	n/a	n/a	n/a	n-backMarkers
623.490177	1.701006	nback_2	5671.144061	Steps:2 KeyPress:False Matched:True	0	n/a	2	False	True	n/a	n/a	n/a	n-backMarkers
624.720855	0.004000	dropped_samples	5672.374739	Dropped 1 samples	n/a	n/a	n/a	n/a	n/a	n/a	n/a	1	UoHDataOffsetStream
625.191175	1.701006	nback_2	5672.845060	Steps:2 KeyPress:False Matched:False	1	n/a	2	False	False	n/a	n/a	n/a	n-backMarkers
626.891388	1.701006	nback_2	5674.545272	Steps:2 KeyPress:False Matched:True	0	n/a	2	False	True	n/a	n/a	n/a	n-backMarkers
627.552834	0.004000	dropped_samples	5675.206719	Dropped 1 samples	n/a	n/a	n/a	n/a	n/a	n/a	n/a	1	UoHDataOffsetStream
628.592243	1.701006	nback_2	5676.246128	Steps:2 KeyPress:False Matched:False	1	n/a	2	False	False	n/a	n/a	n/a	n-backMarkers
630.293565	1.701006	nback_2	5677.947450	Steps:2 KeyPress:False Matched:False	1	n/a	2	False	False	n/a	n/a	n/a	n-backMarkers
630.336148	0.004000	dropped_samples	5677.990032	Dropped 1 samples	n/a	n/a	n/a	n/a	n/a	n/a	n/a	1	UoHDataOffsetStream
630.863486	0.004000	dropped_samples	5678.517371	Dropped 1 samples	n/a	n/a	n/a	n/a	n/a	n/a	n/a	1	UoHDataOffsetStream
631.993815	1.701006	nback_2	5679.647700	Steps:2 KeyPress:False Matched:False	1	n/a	2	False	False	n/a	n/a	n/a	n-backMarkers
633.695283	1.701006	nback_2	5681.349167	Steps:2 KeyPress:False Matched:False	1	n/a	2	False	False	n/a	n/a	n/a	n-backMarkers
634.755017	0.004000	dropped_samples	5682.408901	Dropped 1 samples	n/a	n/a	n/a	n/a	n/a	n/a	n/a	1	UoHDataOffsetStream
635.396139	1.701006	nback_2	5683.050024	Steps:2 KeyPress:False Matched:False	1	n/a	2	False	False	n/a	n/a	n/a	n-backMarkers
635.424022	0.004000	dropped_samples	5683.077907	Dropped 1 samples	n/a	n/a	n/a	n/a	n/a	n/a	n/a	1	UoHDataOffsetStream
637.097341	1.701006	nback_2	5684.751226	Steps:2 KeyPress:True Matched:False	0	n/a	2	True	False	n/a	n/a	n/a	n-backMarkers
638.798288	1.701006	nback_2	5686.452172	Steps:2 KeyPress:False Matched:True	0	n/a	2	False	True	n/a	n/a	n/a	n-backMarkers
640.499250	1.701006	nback_2	5688.153134	Steps:2 KeyPress:False Matched:False	1	n/a	2	False	False	n/a	n/a	n/a	n-backMarkers
640.995312	0.004000	dropped_samples	5688.649197	Dropped 1 samples	n/a	n/a	n/a	n/a	n/a	n/a	n/a	1	UoHDataOffsetStream
642.200093	1.701006	nback_2	5689.853977	Steps:2 KeyPress:False Matched:False	1	n/a	2	False	False	n/a	n/a	n/a	n-backMarkers
642.479750	0.004000	dropped_samples	5690.133635	Dropped 1 samples	n/a	n/a	n/a	n/a	n/a	n/a	n/a	1	UoHDataOffsetStream
643.011960	0.004000	dropped_samples	5690.665845	Dropped 1 samples	n/a	n/a	n/a	n/a	n/a	n/a	n/a	1	UoHDataOffsetStream
643.900477	1.701006	nback_2	5691.554362	Steps:2 KeyPress:False Matched:False	1	n/a	2	False	False	n/a	n/a	n/a	n-backMarkers
645.311749	0.004000	dropped_samples	5692.965634	Dropped 1 samples	n/a	n/a	n/a	n/a	n/a	n/a	n/a	1	UoHDataOffsetStream
645.602203	1.701006	nback_2	5693.256087	Steps:2 KeyPress:False Matched:False	1	n/a	2	False	False	n/a	n/a	n/a	n-backMarkers
645.648658	0.004000	dropped_samples	5693.302543	Dropped 1 samples	n/a	n/a	n/a	n/a	n/a	n/a	n/a	1	UoHDataOffsetStream
647.304079	1.701006	nback_2	5694.957964	Steps:2 KeyPress:False Matched:False	1	n/a	2	False	False	n/a	n/a	n/a	n-backMarkers
649.005618	1.701006	nback_2	5696.659503	Steps:2 KeyPress:True Matched:False	0	n/a	2	True	False	n/a	n/a	n/a	n-backMarkers
650.706249	1.701006	nback_2	5698.360133	Steps:2 KeyPress:False Matched:True	0	n/a	2	False	True	n/a	n/a	n/a	n-backMarkers
652.407332	1.701006	nback_2	5700.061217	Steps:2 KeyPress:False Matched:False	1	n/a	2	False	False	n/a	n/a	n/a	n-backMarkers
653.280475	0.004000	dropped_samples	5700.934360	Dropped 1 samples	n/a	n/a	n/a	n/a	n/a	n/a	n/a	1	UoHDataOffsetStream
654.108289	1.701006	nback_2	5701.762173	Steps:2 KeyPress:False Matched:False	1	n/a	2	False	False	n/a	n/a	n/a	n-backMarkers
655.155534	0.004000	dropped_samples	5702.809419	Dropped 1 samples	n/a	n/a	n/a	n/a	n/a	n/a	n/a	1	UoHDataOffsetStream
655.809560	1.701006	nback_2	5703.463444	Steps:2 KeyPress:False Matched:False	1	n/a	2	False	False	n/a	n/a	n/a	n-backMarkers
657.510357	1.701006	nback_2	5705.164241	Steps:2 KeyPress:True Matched:False	0	n/a	2	True	False	n/a	n/a	n/a	n-backMarkers
659.212043	1.701006	nback_2	5706.865928	Steps:2 KeyPress:False Matched:False	1	n/a	2	False	False	n/a	n/a	n/a	n-backMarkers
659.808770	0.004000	dropped_samples	5707.462655	Dropped 1 samples	n/a	n/a	n/a	n/a	n/a	n/a	n/a	1	UoHDataOffsetStream
660.912345	1.701006	nback_2	5708.566230	Steps:2 KeyPress:True Matched:False	0	n/a	2	True	False	n/a	n/a	n/a	n-backMarkers
662.614272	1.701006	nback_2	5710.268157	Steps:2 KeyPress:False Matched:False	1	n/a	2	False	False	n/a	n/a	n/a	n-backMarkers
664.315258	1.701006	nback_2	5711.969143	Steps:2 KeyPress:False Matched:False	1	n/a	2	False	False	n/a	n/a	n/a	n-backMarkers
666.016280	1.701006	nback_2	5713.670165	Steps:2 KeyPress:True Matched:False	0	n/a	2	True	False	n/a	n/a	n/a	n-backMarkers
666.625329	0.012000	dropped_samples	5714.279213	Dropped 3 samples	n/a	n/a	n/a	n/a	n/a	n/a	n/a	3	UoHDataOffsetStream
667.347907	0.008000	dropped_samples	5715.001792	Dropped 2 samples	n/a	n/a	n/a	n/a	n/a	n/a	n/a	2	UoHDataOffsetStream
667.716328	1.701006	nback_2	5715.370213	Steps:2 KeyPress:False Matched:True	0	n/a	2	False	True	n/a	n/a	n/a	n-backMarkers
668.114518	0.036000	dropped_samples	5715.768403	Dropped 9 samples	n/a	n/a	n/a	n/a	n/a	n/a	n/a	9	UoHDataOffsetStream
669.034250	0.012000	dropped_samples	5716.688135	Dropped 3 samples	n/a	n/a	n/a	n/a	n/a	n/a	n/a	3	UoHDataOffsetStream
669.120403	0.028000	dropped_samples	5716.774288	Dropped 7 samples	n/a	n/a	n/a	n/a	n/a	n/a	n/a	7	UoHDataOffsetStream
669.417371	1.701006	nback_2	5717.071256	Steps:2 KeyPress:False Matched:False	1	n/a	2	False	False	n/a	n/a	n/a	n-backMarkers
670.131220	0.064000	dropped_samples	5717.785105	Dropped 16 samples	n/a	n/a	n/a	n/a	n/a	n/a	n/a	16	UoHDataOffsetStream
671.117290	1.701006	nback_2	5718.771175	Steps:2 KeyPress:False Matched:False	1	n/a	2	False	False	n/a	n/a	n/a	n-backMarkers
672.818053	1.701006	nback_2	5720.471938	Steps:2 KeyPress:True Matched:False	0	n/a	2	True	False	n/a	n/a	n/a	n-backMarkers
674.518169	1.701006	nback_2	5722.172054	Steps:2 KeyPress:False Matched:False	1	n/a	2	False	False	n/a	n/a	n/a	n-backMarkers
676.218829	1.701006	nback_2	5723.872713	Steps:2 KeyPress:False Matched:False	1	n/a	2	False	False	n/a	n/a	n/a	n-backMarkers
677.920141	1.701006	nback_2	5725.574026	Steps:2 KeyPress:False Matched:False	1	n/a	2	False	False	n/a	n/a	n/a	n-backMarkers
679.620288	1.701006	nback_2	5727.274172	Steps:2 KeyPress:False Matched:True	0	n/a	2	False	True	n/a	n/a	n/a	n-backMarkers
681.321626	1.701006	nback_2	5728.975511	Steps:2 KeyPress:False Matched:False	1	n/a	2	False	False	n/a	n/a	n/a	n-backMarkers
683.021709	1.701006	nback_2	5730.675593	Steps:2 KeyPress:False Matched:False	1	n/a	2	False	False	n/a	n/a	n/a	n-backMarkers
683.427079	0.012000	dropped_samples	5731.080964	Dropped 3 samples	n/a	n/a	n/a	n/a	n/a	n/a	n/a	3	UoHDataOffsetStream
684.723149	1.701006	nback_2	5732.377034	Steps:2 KeyPress:False Matched:False	1	n/a	2	False	False	n/a	n/a	n/a	n-backMarkers
686.424296	1.701006	nback_2	5734.078181	Steps:2 KeyPress:False Matched:False	1	n/a	2	False	False	n/a	n/a	n/a	n-backMarkers
688.125315	1.701006	nback_2	5735.779199	Steps:2 KeyPress:False Matched:False	1	n/a	2	False	False	n/a	n/a	n/a	n-backMarkers
689.826284	1.701006	nback_2	5737.480169	Steps:2 KeyPress:True Matched:False	0	n/a	2	True	False	n/a	n/a	n/a	n-backMarkers
691.527313	1.701006	nback_2	5739.181198	Steps:2 KeyPress:False Matched:True	0	n/a	2	False	True	n/a	n/a	n/a	n-backMarkers
693.228329	1.701006	nback_2	5740.882214	Steps:2 KeyPress:False Matched:False	1	n/a	2	False	False	n/a	n/a	n/a	n-backMarkers
694.929180	1.701006	nback_2	5742.583065	Steps:2 KeyPress:False Matched:False	1	n/a	2	False	False	n/a	n/a	n/a	n-backMarkers
696.631082	1.701006	nback_2	5744.284966	Steps:2 KeyPress:False Matched:False	1	n/a	2	False	False	n/a	n/a	n/a	n-backMarkers
698.331108	1.701006	nback_2	5745.984993	Steps:2 KeyPress:False Matched:True	0	n/a	2	False	True	n/a	n/a	n/a	n-backMarkers
700.032387	1.701006	nback_2	5747.686272	Steps:2 KeyPress:False Matched:False	1	n/a	2	False	False	n/a	n/a	n/a	n-backMarkers
701.734195	1.701006	nback_2	5749.388080	Steps:2 KeyPress:False Matched:False	1	n/a	2	False	False	n/a	n/a	n/a	n-backMarkers
703.251369	0.004000	dropped_samples	5750.905254	Dropped 1 samples	n/a	n/a	n/a	n/a	n/a	n/a	n/a	1	UoHDataOffsetStream
703.435377	1.701006	nback_2	5751.089262	Steps:2 KeyPress:True Matched:False	0	n/a	2	True	False	n/a	n/a	n/a	n-backMarkers
705.136855	1.701006	nback_2	5752.790739	Steps:2 KeyPress:False Matched:False	1	n/a	2	False	False	n/a	n/a	n/a	n-backMarkers
706.561923	0.012000	dropped_samples	5754.215808	Dropped 3 samples	n/a	n/a	n/a	n/a	n/a	n/a	n/a	3	UoHDataOffsetStream
706.838290	1.701006	nback_2	5754.492175	Steps:2 KeyPress:False Matched:False	1	n/a	2	False	False	n/a	n/a	n/a	n-backMarkers
707.860709	0.012000	dropped_samples	5755.514593	Dropped 3 samples	n/a	n/a	n/a	n/a	n/a	n/a	n/a	3	UoHDataOffsetStream
708.388169	0.004000	dropped_samples	5756.042053	Dropped 1 samples	n/a	n/a	n/a	n/a	n/a	n/a	n/a	1	UoHDataOffsetStream
708.540101	1.701006	nback_2	5756.193985	Steps:2 KeyPress:False Matched:False	1	n/a	2	False	False	n/a	n/a	n/a	n-backMarkers
710.160533	0.004000	dropped_samples	5757.814418	Dropped 1 samples	n/a	n/a	n/a	n/a	n/a	n/a	n/a	1	UoHDataOffsetStream
710.240269	1.701006	nback_2	5757.894153	Steps:2 KeyPress:True Matched:True	1	n/a	2	True	True	n/a	n/a	n/a	n-backMarkers
711.940299	1.701006	nback_2	5759.594183	Steps:2 KeyPress:False Matched:False	1	n/a	2	False	False	n/a	n/a	n/a	n-backMarkers
713.641157	1.701006	nback_2	5761.295041	Steps:2 KeyPress:False Matched:False	1	n/a	2	False	False	n/a	n/a	n/a	n-backMarkers
714.677188	0.004000	dropped_samples	5762.331073	Dropped 1 samples	n/a	n/a	n/a	n/a	n/a	n/a	n/a	1	UoHDataOffsetStream
715.341205	1.701006	nback_2	5762.995089	Steps:2 KeyPress:False Matched:False	1	n/a	2	False	False	n/a	n/a	n/a	n-backMarkers
717.042204	1.701006	nback_2	5764.696089	Steps:2 KeyPress:False Matched:True	0	n/a	2	False	True	n/a	n/a	n/a	n-backMarkers
718.744034	1.701006	nback_2	5766.397919	Steps:2 KeyPress:False Matched:False	1	n/a	2	False	False	n/a	n/a	n/a	n-backMarkers
720.445314	1.701006	nback_2	5768.099199	Steps:2 KeyPress:False Matched:True	0	n/a	2	False	True	n/a	n/a	n/a	n-backMarkers
722.147093	1.701006	nback_2	5769.800977	Steps:2 KeyPress:False Matched:False	1	n/a	2	False	False	n/a	n/a	n/a	n-backMarkers
723.847349	1.701006	nback_2	5771.501234	Steps:2 KeyPress:False Matched:False	1	n/a	2	False	False	n/a	n/a	n/a	n-backMarkers
725.547422	1.701006	nback_2	5773.201307	Steps:2 KeyPress:False Matched:False	1	n/a	2	False	False	n/a	n/a	n/a	n-backMarkers
725.956855	0.004000	dropped_samples	5773.610739	Dropped 1 samples	n/a	n/a	n/a	n/a	n/a	n/a	n/a	1	UoHDataOffsetStream
727.248320	1.701006	nback_2	5774.902205	Steps:2 KeyPress:False Matched:False	1	n/a	2	False	False	n/a	n/a	n/a	n-backMarkers
728.950166	1.701006	nback_2	5776.604050	Steps:2 KeyPress:False Matched:False	1	n/a	2	False	False	n/a	n/a	n/a	n-backMarkers
730.650178	1.701006	nback_2	5778.304063	Steps:2 KeyPress:False Matched:False	1	n/a	2	False	False	n/a	n/a	n/a	n-backMarkers
731.332560	0.004000	dropped_samples	5778.986445	Dropped 1 samples	n/a	n/a	n/a	n/a	n/a	n/a	n/a	1	UoHDataOffsetStream
732.351027	1.701006	nback_2	5780.004912	Steps:2 KeyPress:False Matched:False	1	n/a	2	False	False	n/a	n/a	n/a	n-backMarkers
734.052062	1.701006	nback_2	5781.705946	Steps:2 KeyPress:False Matched:False	1	n/a	2	False	False	n/a	n/a	n/a	n-backMarkers
735.752177	1.701006	nback_2	5783.406062	Steps:2 KeyPress:False Matched:False	1	n/a	2	False	False	n/a	n/a	n/a	n-backMarkers
735.795392	0.004000	dropped_samples	5783.449277	Dropped 1 samples	n/a	n/a	n/a	n/a	n/a	n/a	n/a	1	UoHDataOffsetStream
737.453304	1.701006	nback_2	5785.107188	Steps:2 KeyPress:False Matched:False	1	n/a	2	False	False	n/a	n/a	n/a	n-backMarkers
739.153857	1.701006	nback_2	5786.807742	Steps:2 KeyPress:False Matched:False	1	n/a	2	False	False	n/a	n/a	n/a	n-backMarkers
739.779836	0.004000	dropped_samples	5787.433721	Dropped 1 samples	n/a	n/a	n/a	n/a	n/a	n/a	n/a	1	UoHDataOffsetStream
740.854360	1.701006	nback_2	5788.508245	Steps:2 KeyPress:True Matched:False	0	n/a	2	True	False	n/a	n/a	n/a	n-backMarkers
742.555255	1.701006	nback_2	5790.209140	Steps:2 KeyPress:False Matched:False	1	n/a	2	False	False	n/a	n/a	n/a	n-backMarkers
744.256304	1.701006	nback_2	5791.910188	Steps:2 KeyPress:False Matched:False	1	n/a	2	False	False	n/a	n/a	n/a	n-backMarkers
744.867723	0.004000	dropped_samples	5792.521608	Dropped 1 samples	n/a	n/a	n/a	n/a	n/a	n/a	n/a	1	UoHDataOffsetStream
745.958168	1.701006	nback_2	5793.612053	Steps:2 KeyPress:True Matched:False	0	n/a	2	True	False	n/a	n/a	n/a	n-backMarkers
746.020165	0.004000	dropped_samples	5793.674049	Dropped 1 samples	n/a	n/a	n/a	n/a	n/a	n/a	n/a	1	UoHDataOffsetStream
747.221272	0.008000	dropped_samples	5794.875157	Dropped 2 samples	n/a	n/a	n/a	n/a	n/a	n/a	n/a	2	UoHDataOffsetStream
747.658857	1.701006	nback_2	5795.312742	Steps:2 KeyPress:False Matched:False	1	n/a	2	False	False	n/a	n/a	n/a	n-backMarkers
749.359091	1.701006	nback_2	5797.012976	Steps:2 KeyPress:False Matched:False	1	n/a	2	False	False	n/a	n/a	n/a	n-backMarkers
749.570771	0.004000	dropped_samples	5797.224655	Dropped 1 samples	n/a	n/a	n/a	n/a	n/a	n/a	n/a	1	UoHDataOffsetStream
751.059185	1.701006	nback_2	5798.713069	Steps:2 KeyPress:True Matched:False	0	n/a	2	True	False	n/a	n/a	n/a	n-backMarkers
752.761356	1.701006	nback_2	5800.415240	Steps:2 KeyPress:False Matched:True	0	n/a	2	False	True	n/a	n/a	n/a	n-backMarkers
754.461574	1.701006	nback_2	5802.115458	Steps:2 KeyPress:False Matched:False	1	n/a	2	False	False	n/a	n/a	n/a	n-backMarkers
756.161855	1.701006	nback_2	5803.815739	Steps:2 KeyPress:True Matched:False	0	n/a	2	True	False	n/a	n/a	n/a	n-backMarkers
757.849886	0.004000	dropped_samples	5805.503770	Dropped 1 samples	n/a	n/a	n/a	n/a	n/a	n/a	n/a	1	UoHDataOffsetStream
757.861926	1.701006	nback_2	5805.515811	Steps:2 KeyPress:False Matched:False	1	n/a	2	False	False	n/a	n/a	n/a	n-backMarkers
759.561997	1.701006	nback_2	5807.215882	Steps:2 KeyPress:False Matched:True	0	n/a	2	False	True	n/a	n/a	n/a	n-backMarkers
761.263150	1.701006	nback_2	5808.917035	Steps:2 KeyPress:False Matched:False	1	n/a	2	False	False	n/a	n/a	n/a	n-backMarkers
762.577729	0.012000	dropped_samples	5810.231614	Dropped 3 samples	n/a	n/a	n/a	n/a	n/a	n/a	n/a	3	UoHDataOffsetStream
762.964153	1.701006	nback_2	5810.618038	Steps:2 KeyPress:False Matched:False	1	n/a	2	False	False	n/a	n/a	n/a	n-backMarkers
764.664263	1.701006	nback_2	5812.318148	Steps:2 KeyPress:False Matched:False	1	n/a	2	False	False	n/a	n/a	n/a	n-backMarkers
766.366210	1.701006	nback_2	5814.020095	Steps:2 KeyPress:False Matched:False	1	n/a	2	False	False	n/a	n/a	n/a	n-backMarkers
766.996692	0.012000	dropped_samples	5814.650576	Dropped 3 samples	n/a	n/a	n/a	n/a	n/a	n/a	n/a	3	UoHDataOffsetStream
768.068127	1.701006	nback_2	5815.722012	Steps:2 KeyPress:True Matched:True	1	n/a	2	True	True	n/a	n/a	n/a	n-backMarkers
769.769373	1.701006	nback_2	5817.423258	Steps:2 KeyPress:False Matched:False	1	n/a	2	False	False	n/a	n/a	n/a	n-backMarkers
771.469965	1.701006	nback_2	5819.123850	Steps:2 KeyPress:False Matched:False	1	n/a	2	False	False	n/a	n/a	n/a	n-backMarkers
772.372683	0.004000	dropped_samples	5820.026568	Dropped 1 samples	n/a	n/a	n/a	n/a	n/a	n/a	n/a	1	UoHDataOffsetStream
772.709611	0.004000	dropped_samples	5820.363496	Dropped 1 samples	n/a	n/a	n/a	n/a	n/a	n/a	n/a	1	UoHDataOffsetStream
773.170568	1.701006	nback_2	5820.824453	Steps:2 KeyPress:False Matched:False	1	n/a	2	False	False	n/a	n/a	n/a	n-backMarkers
774.872027	1.701006	nback_2	5822.525911	Steps:2 KeyPress:True Matched:False	0	n/a	2	True	False	n/a	n/a	n/a	n-backMarkers
776.572206	1.701006	nback_2	5824.226091	Steps:2 KeyPress:False Matched:True	0	n/a	2	False	True	n/a	n/a	n/a	n-backMarkers
777.460381	0.012000	dropped_samples	5825.114266	Dropped 3 samples	n/a	n/a	n/a	n/a	n/a	n/a	n/a	3	UoHDataOffsetStream
777.841463	0.004000	dropped_samples	5825.495348	Dropped 1 samples	n/a	n/a	n/a	n/a	n/a	n/a	n/a	1	UoHDataOffsetStream
778.273975	1.701006	nback_2	5825.927859	Steps:2 KeyPress:False Matched:False	1	n/a	2	False	False	n/a	n/a	n/a	n-backMarkers
779.668019	0.004000	dropped_samples	5827.321904	Dropped 1 samples	n/a	n/a	n/a	n/a	n/a	n/a	n/a	1	UoHDataOffsetStream
779.974046	1.701006	nback_2	5827.627930	Steps:2 KeyPress:False Matched:False	1	n/a	2	False	False	n/a	n/a	n/a	n-backMarkers
781.675003	1.701006	nback_2	5829.328888	Steps:2 KeyPress:False Matched:False	1	n/a	2	False	False	n/a	n/a	n/a	n-backMarkers
782.020941	0.004000	dropped_samples	5829.674825	Dropped 1 samples	n/a	n/a	n/a	n/a	n/a	n/a	n/a	1	UoHDataOffsetStream
782.690059	0.004000	dropped_samples	5830.343944	Dropped 1 samples	n/a	n/a	n/a	n/a	n/a	n/a	n/a	1	UoHDataOffsetStream
783.315143	0.004000	dropped_samples	5830.969028	Dropped 1 samples	n/a	n/a	n/a	n/a	n/a	n/a	n/a	1	UoHDataOffsetStream
783.375336	1.701006	nback_2	5831.029221	Steps:2 KeyPress:False Matched:False	1	n/a	2	False	False	n/a	n/a	n/a	n-backMarkers
785.077294	1.701006	nback_2	5832.731179	Steps:2 KeyPress:False Matched:False	1	n/a	2	False	False	n/a	n/a	n/a	n-backMarkers
786.532870	0.004000	dropped_samples	5834.186755	Dropped 1 samples	n/a	n/a	n/a	n/a	n/a	n/a	n/a	1	UoHDataOffsetStream
786.777327	1.701006	nback_2	5834.431211	Steps:2 KeyPress:False Matched:False	1	n/a	2	False	False	n/a	n/a	n/a	n-backMarkers
786.820953	0.004000	dropped_samples	5834.474837	Dropped 1 samples	n/a	n/a	n/a	n/a	n/a	n/a	n/a	1	UoHDataOffsetStream
787.351165	0.004000	dropped_samples	5835.005050	Dropped 1 samples	n/a	n/a	n/a	n/a	n/a	n/a	n/a	1	UoHDataOffsetStream
789.169612	0.004000	dropped_samples	5836.823496	Dropped 1 samples	n/a	n/a	n/a	n/a	n/a	n/a	n/a	1	UoHDataOffsetStream
795.481652	1.701006	nback_3	5843.135536	Steps:3 KeyPress:False Matched:False	1	n/a	3	False	False	n/a	n/a	n/a	n-backMarkers
797.182153	1.701006	nback_3	5844.836038	Steps:3 KeyPress:False Matched:False	1	n/a	3	False	False	n/a	n/a	n/a	n-backMarkers
798.883066	1.701006	nback_3	5846.536951	Steps:3 KeyPress:False Matched:False	1	n/a	3	False	False	n/a	n/a	n/a	n-backMarkers
799.106130	0.004000	dropped_samples	5846.760015	Dropped 1 samples	n/a	n/a	n/a	n/a	n/a	n/a	n/a	1	UoHDataOffsetStream
800.583887	1.701006	nback_3	5848.237772	Steps:3 KeyPress:False Matched:False	1	n/a	3	False	False	n/a	n/a	n/a	n-backMarkers
800.741885	0.004000	dropped_samples	5848.395769	Dropped 1 samples	n/a	n/a	n/a	n/a	n/a	n/a	n/a	1	UoHDataOffsetStream
802.285383	1.701006	nback_3	5849.939268	Steps:3 KeyPress:False Matched:False	1	n/a	3	False	False	n/a	n/a	n/a	n-backMarkers
803.986125	1.701006	nback_3	5851.640010	Steps:3 KeyPress:False Matched:False	1	n/a	3	False	False	n/a	n/a	n/a	n-backMarkers
804.530988	0.004000	dropped_samples	5852.184873	Dropped 1 samples	n/a	n/a	n/a	n/a	n/a	n/a	n/a	1	UoHDataOffsetStream
805.346373	0.004000	dropped_samples	5853.000258	Dropped 1 samples	n/a	n/a	n/a	n/a	n/a	n/a	n/a	1	UoHDataOffsetStream
805.686959	1.701006	nback_3	5853.340844	Steps:3 KeyPress:False Matched:False	1	n/a	3	False	False	n/a	n/a	n/a	n-backMarkers
807.387095	1.701006	nback_3	5855.040980	Steps:3 KeyPress:False Matched:True	0	n/a	3	False	True	n/a	n/a	n/a	n-backMarkers
809.088244	1.701006	nback_3	5856.742128	Steps:3 KeyPress:False Matched:False	1	n/a	3	False	False	n/a	n/a	n/a	n-backMarkers
810.790200	1.701006	nback_3	5858.444084	Steps:3 KeyPress:False Matched:True	0	n/a	3	False	True	n/a	n/a	n/a	n-backMarkers
812.491138	1.701006	nback_3	5860.145022	Steps:3 KeyPress:False Matched:False	1	n/a	3	False	False	n/a	n/a	n/a	n-backMarkers
814.192100	1.701006	nback_3	5861.845984	Steps:3 KeyPress:False Matched:False	1	n/a	3	False	False	n/a	n/a	n/a	n-backMarkers
815.893152	1.701006	nback_3	5863.547036	Steps:3 KeyPress:False Matched:True	0	n/a	3	False	True	n/a	n/a	n/a	n-backMarkers
817.594138	1.701006	nback_3	5865.248022	Steps:3 KeyPress:False Matched:False	1	n/a	3	False	False	n/a	n/a	n/a	n-backMarkers
819.295156	1.701006	nback_3	5866.949041	Steps:3 KeyPress:False Matched:False	1	n/a	3	False	False	n/a	n/a	n/a	n-backMarkers
819.420735	0.008000	dropped_samples	5867.074620	Dropped 2 samples	n/a	n/a	n/a	n/a	n/a	n/a	n/a	2	UoHDataOffsetStream
820.996220	1.701006	nback_3	5868.650104	Steps:3 KeyPress:False Matched:False	1	n/a	3	False	False	n/a	n/a	n/a	n-backMarkers
821.523920	0.012000	dropped_samples	5869.177805	Dropped 3 samples	n/a	n/a	n/a	n/a	n/a	n/a	n/a	3	UoHDataOffsetStream
822.696748	1.701006	nback_3	5870.350632	Steps:3 KeyPress:False Matched:False	1	n/a	3	False	False	n/a	n/a	n/a	n-backMarkers
824.398400	1.701006	nback_3	5872.052285	Steps:3 KeyPress:False Matched:True	0	n/a	3	False	True	n/a	n/a	n/a	n-backMarkers
826.099526	1.701006	nback_3	5873.753411	Steps:3 KeyPress:False Matched:False	1	n/a	3	False	False	n/a	n/a	n/a	n-backMarkers
826.420708	0.004000	dropped_samples	5874.074592	Dropped 1 samples	n/a	n/a	n/a	n/a	n/a	n/a	n/a	1	UoHDataOffsetStream
826.562196	0.004000	dropped_samples	5874.216081	Dropped 1 samples	n/a	n/a	n/a	n/a	n/a	n/a	n/a	1	UoHDataOffsetStream
827.799629	1.701006	nback_3	5875.453514	Steps:3 KeyPress:False Matched:False	1	n/a	3	False	False	n/a	n/a	n/a	n-backMarkers
828.866880	0.004000	dropped_samples	5876.520765	Dropped 1 samples	n/a	n/a	n/a	n/a	n/a	n/a	n/a	1	UoHDataOffsetStream
829.501325	1.701006	nback_3	5877.155210	Steps:3 KeyPress:False Matched:False	1	n/a	3	False	False	n/a	n/a	n/a	n-backMarkers
831.202101	1.701006	nback_3	5878.855985	Steps:3 KeyPress:False Matched:False	1	n/a	3	False	False	n/a	n/a	n/a	n-backMarkers
831.317992	0.004000	dropped_samples	5878.971876	Dropped 1 samples	n/a	n/a	n/a	n/a	n/a	n/a	n/a	1	UoHDataOffsetStream
832.900202	0.004000	dropped_samples	5880.554087	Dropped 1 samples	n/a	n/a	n/a	n/a	n/a	n/a	n/a	1	UoHDataOffsetStream
832.904203	1.701006	nback_3	5880.558088	Steps:3 KeyPress:False Matched:False	1	n/a	3	False	False	n/a	n/a	n/a	n-backMarkers
834.604222	1.701006	nback_3	5882.258107	Steps:3 KeyPress:False Matched:False	1	n/a	3	False	False	n/a	n/a	n/a	n-backMarkers
835.732237	0.004000	dropped_samples	5883.386122	Dropped 1 samples	n/a	n/a	n/a	n/a	n/a	n/a	n/a	1	UoHDataOffsetStream
836.305628	1.701006	nback_3	5883.959512	Steps:3 KeyPress:False Matched:False	1	n/a	3	False	False	n/a	n/a	n/a	n-backMarkers
836.308499	0.012000	dropped_samples	5883.962383	Dropped 3 samples	n/a	n/a	n/a	n/a	n/a	n/a	n/a	3	UoHDataOffsetStream
838.005809	1.701006	nback_3	5885.659694	Steps:3 KeyPress:False Matched:False	1	n/a	3	False	False	n/a	n/a	n/a	n-backMarkers
839.707252	1.701006	nback_3	5887.361137	Steps:3 KeyPress:False Matched:False	1	n/a	3	False	False	n/a	n/a	n/a	n-backMarkers
840.057982	0.004000	dropped_samples	5887.711867	Dropped 1 samples	n/a	n/a	n/a	n/a	n/a	n/a	n/a	1	UoHDataOffsetStream
841.408069	1.701006	nback_3	5889.061954	Steps:3 KeyPress:False Matched:False	1	n/a	3	False	False	n/a	n/a	n/a	n-backMarkers
842.260584	0.020000	dropped_samples	5889.914469	Dropped 5 samples	n/a	n/a	n/a	n/a	n/a	n/a	n/a	5	UoHDataOffsetStream
843.108346	1.701006	nback_3	5890.762230	Steps:3 KeyPress:False Matched:False	1	n/a	3	False	False	n/a	n/a	n/a	n-backMarkers
843.364154	0.004000	dropped_samples	5891.018038	Dropped 1 samples	n/a	n/a	n/a	n/a	n/a	n/a	n/a	1	UoHDataOffsetStream
844.830904	1.701006	nback_3	5892.484789	Steps:3 KeyPress:False Matched:False	1	n/a	3	False	False	n/a	n/a	n/a	n-backMarkers
846.099286	0.004000	dropped_samples	5893.753171	Dropped 1 samples	n/a	n/a	n/a	n/a	n/a	n/a	n/a	1	UoHDataOffsetStream
846.531178	1.701006	nback_3	5894.185063	Steps:3 KeyPress:False Matched:False	1	n/a	3	False	False	n/a	n/a	n/a	n-backMarkers
848.232256	1.701006	nback_3	5895.886140	Steps:3 KeyPress:False Matched:False	1	n/a	3	False	False	n/a	n/a	n/a	n-backMarkers
849.933249	1.701006	nback_3	5897.587134	Steps:3 KeyPress:False Matched:True	0	n/a	3	False	True	n/a	n/a	n/a	n-backMarkers
851.634789	1.701006	nback_3	5899.288674	Steps:3 KeyPress:False Matched:False	1	n/a	3	False	False	n/a	n/a	n/a	n-backMarkers
852.485200	0.004000	dropped_samples	5900.139084	Dropped 1 samples	n/a	n/a	n/a	n/a	n/a	n/a	n/a	1	UoHDataOffsetStream
853.351359	1.701006	nback_3	5901.005243	Steps:3 KeyPress:False Matched:False	1	n/a	3	False	False	n/a	n/a	n/a	n-backMarkers
855.062311	1.701006	nback_3	5902.716195	Steps:3 KeyPress:False Matched:True	0	n/a	3	False	True	n/a	n/a	n/a	n-backMarkers
856.763562	1.701006	nback_3	5904.417446	Steps:3 KeyPress:False Matched:False	1	n/a	3	False	False	n/a	n/a	n/a	n-backMarkers
857.958847	0.004000	dropped_samples	5905.612732	Dropped 1 samples	n/a	n/a	n/a	n/a	n/a	n/a	n/a	1	UoHDataOffsetStream
858.463906	1.701006	nback_3	5906.117791	Steps:3 KeyPress:False Matched:False	1	n/a	3	False	False	n/a	n/a	n/a	n-backMarkers
860.164336	1.701006	nback_3	5907.818220	Steps:3 KeyPress:False Matched:False	1	n/a	3	False	False	n/a	n/a	n/a	n-backMarkers
860.644372	0.004000	dropped_samples	5908.298256	Dropped 1 samples	n/a	n/a	n/a	n/a	n/a	n/a	n/a	1	UoHDataOffsetStream
861.865356	1.701006	nback_3	5909.519241	Steps:3 KeyPress:False Matched:True	0	n/a	3	False	True	n/a	n/a	n/a	n-backMarkers
863.566855	1.701006	nback_3	5911.220739	Steps:3 KeyPress:False Matched:False	1	n/a	3	False	False	n/a	n/a	n/a	n-backMarkers
865.268172	1.701006	nback_3	5912.922057	Steps:3 KeyPress:False Matched:True	0	n/a	3	False	True	n/a	n/a	n/a	n-backMarkers
866.498764	0.004000	dropped_samples	5914.152648	Dropped 1 samples	n/a	n/a	n/a	n/a	n/a	n/a	n/a	1	UoHDataOffsetStream
866.968667	1.701006	nback_3	5914.622552	Steps:3 KeyPress:False Matched:False	1	n/a	3	False	False	n/a	n/a	n/a	n-backMarkers
868.669875	1.701006	nback_3	5916.323759	Steps:3 KeyPress:False Matched:False	1	n/a	3	False	False	n/a	n/a	n/a	n-backMarkers
870.371006	1.701006	nback_3	5918.024890	Steps:3 KeyPress:False Matched:False	1	n/a	3	False	False	n/a	n/a	n/a	n-backMarkers
872.072153	1.701006	nback_3	5919.726038	Steps:3 KeyPress:False Matched:False	1	n/a	3	False	False	n/a	n/a	n/a	n-backMarkers
873.320324	0.004000	dropped_samples	5920.974208	Dropped 1 samples	n/a	n/a	n/a	n/a	n/a	n/a	n/a	1	UoHDataOffsetStream
873.364198	0.012000	dropped_samples	5921.018082	Dropped 3 samples	n/a	n/a	n/a	n/a	n/a	n/a	n/a	3	UoHDataOffsetStream
873.773561	1.701006	nback_3	5921.427445	Steps:3 KeyPress:False Matched:False	1	n/a	3	False	False	n/a	n/a	n/a	n-backMarkers
875.473573	1.701006	nback_3	5923.127457	Steps:3 KeyPress:False Matched:True	0	n/a	3	False	True	n/a	n/a	n/a	n-backMarkers
876.557579	0.004000	dropped_samples	5924.211464	Dropped 1 samples	n/a	n/a	n/a	n/a	n/a	n/a	n/a	1	UoHDataOffsetStream
877.174013	1.701006	nback_3	5924.827898	Steps:3 KeyPress:False Matched:False	1	n/a	3	False	False	n/a	n/a	n/a	n-backMarkers
878.874049	1.701006	nback_3	5926.527934	Steps:3 KeyPress:False Matched:False	1	n/a	3	False	False	n/a	n/a	n/a	n-backMarkers
880.576003	1.701006	nback_3	5928.229887	Steps:3 KeyPress:False Matched:True	0	n/a	3	False	True	n/a	n/a	n/a	n-backMarkers
882.276285	1.701006	nback_3	5929.930170	Steps:3 KeyPress:False Matched:False	1	n/a	3	False	False	n/a	n/a	n/a	n-backMarkers
883.977994	1.701006	nback_3	5931.631879	Steps:3 KeyPress:False Matched:False	1	n/a	3	False	False	n/a	n/a	n/a	n-backMarkers
885.679036	1.701006	nback_3	5933.332921	Steps:3 KeyPress:False Matched:False	1	n/a	3	False	False	n/a	n/a	n/a	n-backMarkers
887.379974	1.701006	nback_3	5935.033858	Steps:3 KeyPress:False Matched:True	0	n/a	3	False	True	n/a	n/a	n/a	n-backMarkers
887.812474	0.008000	dropped_samples	5935.466358	Dropped 2 samples	n/a	n/a	n/a	n/a	n/a	n/a	n/a	2	UoHDataOffsetStream
889.081118	1.701006	nback_3	5936.735003	Steps:3 KeyPress:False Matched:False	1	n/a	3	False	False	n/a	n/a	n/a	n-backMarkers
889.927031	0.004000	dropped_samples	5937.580916	Dropped 1 samples	n/a	n/a	n/a	n/a	n/a	n/a	n/a	1	UoHDataOffsetStream
890.782084	1.701006	nback_3	5938.435968	Steps:3 KeyPress:False Matched:False	1	n/a	3	False	False	n/a	n/a	n/a	n-backMarkers
892.482999	1.701006	nback_3	5940.136884	Steps:3 KeyPress:False Matched:False	1	n/a	3	False	False	n/a	n/a	n/a	n-backMarkers
894.183233	1.701006	nback_3	5941.837117	Steps:3 KeyPress:False Matched:False	1	n/a	3	False	False	n/a	n/a	n/a	n-backMarkers
895.884087	1.701006	nback_3	5943.537972	Steps:3 KeyPress:False Matched:True	0	n/a	3	False	True	n/a	n/a	n/a	n-backMarkers
896.455081	0.004000	dropped_samples	5944.108966	Dropped 1 samples	n/a	n/a	n/a	n/a	n/a	n/a	n/a	1	UoHDataOffsetStream
897.585384	1.701006	nback_3	5945.239269	Steps:3 KeyPress:False Matched:False	1	n/a	3	False	False	n/a	n/a	n/a	n-backMarkers
899.287045	1.701006	nback_3	5946.940930	Steps:3 KeyPress:False Matched:False	1	n/a	3	False	False	n/a	n/a	n/a	n-backMarkers
900.987622	1.701006	nback_3	5948.641507	Steps:3 KeyPress:False Matched:False	1	n/a	3	False	False	n/a	n/a	n/a	n-backMarkers
902.689209	1.701006	nback_3	5950.343094	Steps:3 KeyPress:False Matched:False	1	n/a	3	False	False	n/a	n/a	n/a	n-backMarkers
904.390081	1.701006	nback_3	5952.043966	Steps:3 KeyPress:False Matched:True	0	n/a	3	False	True	n/a	n/a	n/a	n-backMarkers
905.527955	0.004000	dropped_samples	5953.181840	Dropped 1 samples	n/a	n/a	n/a	n/a	n/a	n/a	n/a	1	UoHDataOffsetStream
906.092039	1.701006	nback_3	5953.745924	Steps:3 KeyPress:False Matched:False	1	n/a	3	False	False	n/a	n/a	n/a	n-backMarkers
907.792948	1.701006	nback_3	5955.446832	Steps:3 KeyPress:False Matched:False	1	n/a	3	False	False	n/a	n/a	n/a	n-backMarkers
907.827203	0.004000	dropped_samples	5955.481088	Dropped 1 samples	n/a	n/a	n/a	n/a	n/a	n/a	n/a	1	UoHDataOffsetStream
909.494185	1.701006	nback_3	5957.148070	Steps:3 KeyPress:True Matched:True	1	n/a	3	True	True	n/a	n/a	n/a	n-backMarkers
911.195767	1.701006	nback_3	5958.849651	Steps:3 KeyPress:False Matched:False	1	n/a	3	False	False	n/a	n/a	n/a	n-backMarkers
912.896160	1.701006	nback_3	5960.550045	Steps:3 KeyPress:False Matched:False	1	n/a	3	False	False	n/a	n/a	n/a	n-backMarkers
914.597179	1.701006	nback_3	5962.251064	Steps:3 KeyPress:False Matched:False	1	n/a	3	False	False	n/a	n/a	n/a	n-backMarkers
916.299070	1.701006	nback_3	5963.952955	Steps:3 KeyPress:False Matched:False	1	n/a	3	False	False	n/a	n/a	n/a	n-backMarkers
917.999139	1.701006	nback_3	5965.653023	Steps:3 KeyPress:False Matched:False	1	n/a	3	False	False	n/a	n/a	n/a	n-backMarkers
919.700022	1.701006	nback_3	5967.353907	Steps:3 KeyPress:False Matched:True	0	n/a	3	False	True	n/a	n/a	n/a	n-backMarkers
921.401176	1.701006	nback_3	5969.055061	Steps:3 KeyPress:False Matched:False	1	n/a	3	False	False	n/a	n/a	n/a	n-backMarkers
923.101970	1.701006	nback_3	5970.755855	Steps:3 KeyPress:False Matched:False	1	n/a	3	False	False	n/a	n/a	n/a	n-backMarkers
924.803176	1.701006	nback_3	5972.457060	Steps:3 KeyPress:False Matched:False	1	n/a	3	False	False	n/a	n/a	n/a	n-backMarkers
926.504058	1.701006	nback_3	5974.157943	Steps:3 KeyPress:False Matched:False	1	n/a	3	False	False	n/a	n/a	n/a	n-backMarkers
927.124145	0.004000	dropped_samples	5974.778029	Dropped 1 samples	n/a	n/a	n/a	n/a	n/a	n/a	n/a	1	UoHDataOffsetStream
927.939522	0.004000	dropped_samples	5975.593406	Dropped 1 samples	n/a	n/a	n/a	n/a	n/a	n/a	n/a	1	UoHDataOffsetStream
928.204149	1.701006	nback_3	5975.858034	Steps:3 KeyPress:False Matched:True	0	n/a	3	False	True	n/a	n/a	n/a	n-backMarkers
928.227652	0.012000	dropped_samples	5975.881537	Dropped 3 samples	n/a	n/a	n/a	n/a	n/a	n/a	n/a	3	UoHDataOffsetStream
929.380010	0.004000	dropped_samples	5977.033895	Dropped 1 samples	n/a	n/a	n/a	n/a	n/a	n/a	n/a	1	UoHDataOffsetStream
929.905209	1.701006	nback_3	5977.559094	Steps:3 KeyPress:False Matched:False	1	n/a	3	False	False	n/a	n/a	n/a	n-backMarkers
931.606972	1.701006	nback_3	5979.260857	Steps:3 KeyPress:False Matched:False	1	n/a	3	False	False	n/a	n/a	n/a	n-backMarkers
931.635885	0.004000	dropped_samples	5979.289770	Dropped 1 samples	n/a	n/a	n/a	n/a	n/a	n/a	n/a	1	UoHDataOffsetStream
933.308041	1.701006	nback_3	5980.961925	Steps:3 KeyPress:False Matched:False	1	n/a	3	False	False	n/a	n/a	n/a	n-backMarkers
935.009060	1.701006	nback_3	5982.662945	Steps:3 KeyPress:False Matched:False	1	n/a	3	False	False	n/a	n/a	n/a	n-backMarkers
936.710068	1.701006	nback_3	5984.363953	Steps:3 KeyPress:False Matched:False	1	n/a	3	False	False	n/a	n/a	n/a	n-backMarkers
938.410912	1.701006	nback_3	5986.064796	Steps:3 KeyPress:False Matched:True	0	n/a	3	False	True	n/a	n/a	n/a	n-backMarkers
940.112080	1.701006	nback_3	5987.765964	Steps:3 KeyPress:False Matched:False	1	n/a	3	False	False	n/a	n/a	n/a	n-backMarkers
941.814004	1.701006	nback_3	5989.467888	Steps:3 KeyPress:False Matched:False	1	n/a	3	False	False	n/a	n/a	n/a	n-backMarkers
943.514101	1.701006	nback_3	5991.167986	Steps:3 KeyPress:False Matched:False	1	n/a	3	False	False	n/a	n/a	n/a	n-backMarkers
945.216069	1.701006	nback_3	5992.869954	Steps:3 KeyPress:False Matched:False	1	n/a	3	False	False	n/a	n/a	n/a	n-backMarkers
946.917385	1.701006	nback_3	5994.571269	Steps:3 KeyPress:False Matched:False	1	n/a	3	False	False	n/a	n/a	n/a	n-backMarkers
948.535323	0.004000	dropped_samples	5996.189208	Dropped 1 samples	n/a	n/a	n/a	n/a	n/a	n/a	n/a	1	UoHDataOffsetStream
948.618053	1.701006	nback_3	5996.271937	Steps:3 KeyPress:True Matched:False	0	n/a	3	True	False	n/a	n/a	n/a	n-backMarkers
950.318797	1.701006	nback_3	5997.972681	Steps:3 KeyPress:False Matched:False	1	n/a	3	False	False	n/a	n/a	n/a	n-backMarkers
952.019214	1.701006	nback_3	5999.673099	Steps:3 KeyPress:False Matched:False	1	n/a	3	False	False	n/a	n/a	n/a	n-backMarkers
953.574326	0.004000	dropped_samples	6001.228211	Dropped 1 samples	n/a	n/a	n/a	n/a	n/a	n/a	n/a	1	UoHDataOffsetStream
953.720937	1.701006	nback_3	6001.374822	Steps:3 KeyPress:False Matched:False	1	n/a	3	False	False	n/a	n/a	n/a	n-backMarkers
955.422536	1.701006	nback_3	6003.076421	Steps:3 KeyPress:False Matched:True	0	n/a	3	False	True	n/a	n/a	n/a	n-backMarkers
957.123200	1.701006	nback_3	6004.777084	Steps:3 KeyPress:False Matched:False	1	n/a	3	False	False	n/a	n/a	n/a	n-backMarkers
958.823241	1.701006	nback_3	6006.477125	Steps:3 KeyPress:False Matched:False	1	n/a	3	False	False	n/a	n/a	n/a	n-backMarkers
960.525372	1.701006	nback_3	6008.179257	Steps:3 KeyPress:False Matched:False	1	n/a	3	False	False	n/a	n/a	n/a	n-backMarkers
962.226154	1.701006	nback_3	6009.880038	Steps:3 KeyPress:False Matched:False	1	n/a	3	False	False	n/a	n/a	n/a	n-backMarkers
963.927979	1.701006	nback_3	6011.581864	Steps:3 KeyPress:False Matched:True	0	n/a	3	False	True	n/a	n/a	n/a	n-backMarkers
969.892821	0.004000	dropped_samples	6017.546706	Dropped 1 samples	n/a	n/a	n/a	n/a	n/a	n/a	n/a	1	UoHDataOffsetStream
970.182513	0.028000	dropped_samples	6017.836398	Dropped 7 samples	n/a	n/a	n/a	n/a	n/a	n/a	n/a	7	UoHDataOffsetStream
972.624126	1.701006	nback_4	6020.278010	Steps:4 KeyPress:False Matched:False	1	n/a	4	False	False	n/a	n/a	n/a	n-backMarkers
974.325909	1.701006	nback_4	6021.979794	Steps:4 KeyPress:False Matched:False	1	n/a	4	False	False	n/a	n/a	n/a	n-backMarkers
976.027065	1.701006	nback_4	6023.680950	Steps:4 KeyPress:False Matched:False	1	n/a	4	False	False	n/a	n/a	n/a	n-backMarkers
977.728070	1.701006	nback_4	6025.381954	Steps:4 KeyPress:False Matched:True	0	n/a	4	False	True	n/a	n/a	n/a	n-backMarkers
979.429991	1.701006	nback_4	6027.083875	Steps:4 KeyPress:False Matched:True	0	n/a	4	False	True	n/a	n/a	n/a	n-backMarkers
981.131848	1.701006	nback_4	6028.785733	Steps:4 KeyPress:False Matched:False	1	n/a	4	False	False	n/a	n/a	n/a	n-backMarkers
982.832037	1.701006	nback_4	6030.485921	Steps:4 KeyPress:False Matched:False	1	n/a	4	False	False	n/a	n/a	n/a	n-backMarkers
983.764924	0.008000	dropped_samples	6031.418809	Dropped 2 samples	n/a	n/a	n/a	n/a	n/a	n/a	n/a	2	UoHDataOffsetStream
984.533017	1.701006	nback_4	6032.186902	Steps:4 KeyPress:False Matched:False	1	n/a	4	False	False	n/a	n/a	n/a	n-backMarkers
986.233270	1.701006	nback_4	6033.887155	Steps:4 KeyPress:False Matched:True	0	n/a	4	False	True	n/a	n/a	n/a	n-backMarkers
987.933976	1.701006	nback_4	6035.587861	Steps:4 KeyPress:False Matched:False	1	n/a	4	False	False	n/a	n/a	n/a	n-backMarkers
989.635074	1.701006	nback_4	6037.288959	Steps:4 KeyPress:False Matched:False	1	n/a	4	False	False	n/a	n/a	n/a	n-backMarkers
991.335976	1.701006	nback_4	6038.989861	Steps:4 KeyPress:False Matched:False	1	n/a	4	False	False	n/a	n/a	n/a	n-backMarkers
992.119440	0.004000	dropped_samples	6039.773324	Dropped 1 samples	n/a	n/a	n/a	n/a	n/a	n/a	n/a	1	UoHDataOffsetStream
992.549118	0.004000	dropped_samples	6040.203003	Dropped 1 samples	n/a	n/a	n/a	n/a	n/a	n/a	n/a	1	UoHDataOffsetStream
993.036023	1.701006	nback_4	6040.689908	Steps:4 KeyPress:False Matched:False	1	n/a	4	False	False	n/a	n/a	n/a	n-backMarkers
994.736980	1.701006	nback_4	6042.390865	Steps:4 KeyPress:False Matched:True	0	n/a	4	False	True	n/a	n/a	n/a	n-backMarkers
994.902707	0.004000	dropped_samples	6042.556592	Dropped 1 samples	n/a	n/a	n/a	n/a	n/a	n/a	n/a	1	UoHDataOffsetStream
996.438084	1.701006	nback_4	6044.091969	Steps:4 KeyPress:False Matched:False	1	n/a	4	False	False	n/a	n/a	n/a	n-backMarkers
998.138607	1.701006	nback_4	6045.792492	Steps:4 KeyPress:False Matched:False	1	n/a	4	False	False	n/a	n/a	n/a	n-backMarkers
999.839057	1.701006	nback_4	6047.492942	Steps:4 KeyPress:False Matched:False	1	n/a	4	False	False	n/a	n/a	n/a	n-backMarkers
1000.664260	0.004000	dropped_samples	6048.318145	Dropped 1 samples	n/a	n/a	n/a	n/a	n/a	n/a	n/a	1	UoHDataOffsetStream
1001.540250	1.701006	nback_4	6049.194135	Steps:4 KeyPress:False Matched:True	0	n/a	4	False	True	n/a	n/a	n/a	n-backMarkers
1003.242140	1.701006	nback_4	6050.896025	Steps:4 KeyPress:False Matched:True	0	n/a	4	False	True	n/a	n/a	n/a	n-backMarkers
1004.942799	1.701006	nback_4	6052.596684	Steps:4 KeyPress:False Matched:False	1	n/a	4	False	False	n/a	n/a	n/a	n-backMarkers
1006.642932	1.701006	nback_4	6054.296817	Steps:4 KeyPress:False Matched:False	1	n/a	4	False	False	n/a	n/a	n/a	n-backMarkers
1008.343858	1.701006	nback_4	6055.997743	Steps:4 KeyPress:False Matched:False	1	n/a	4	False	False	n/a	n/a	n/a	n-backMarkers
1009.520397	0.008000	dropped_samples	6057.174281	Dropped 2 samples	n/a	n/a	n/a	n/a	n/a	n/a	n/a	2	UoHDataOffsetStream
1009.541243	0.024000	dropped_samples	6057.195127	Dropped 6 samples	n/a	n/a	n/a	n/a	n/a	n/a	n/a	6	UoHDataOffsetStream
1010.045090	1.701006	nback_4	6057.698975	Steps:4 KeyPress:False Matched:True	0	n/a	4	False	True	n/a	n/a	n/a	n-backMarkers
1011.460361	0.004000	dropped_samples	6059.114245	Dropped 1 samples	n/a	n/a	n/a	n/a	n/a	n/a	n/a	1	UoHDataOffsetStream
1011.746961	1.701006	nback_4	6059.400846	Steps:4 KeyPress:False Matched:False	1	n/a	4	False	False	n/a	n/a	n/a	n-backMarkers
1012.710360	0.012000	dropped_samples	6060.364244	Dropped 3 samples	n/a	n/a	n/a	n/a	n/a	n/a	n/a	3	UoHDataOffsetStream
1013.448026	1.701006	nback_4	6061.101911	Steps:4 KeyPress:False Matched:True	0	n/a	4	False	True	n/a	n/a	n/a	n-backMarkers
1014.438826	0.008000	dropped_samples	6062.092710	Dropped 2 samples	n/a	n/a	n/a	n/a	n/a	n/a	n/a	2	UoHDataOffsetStream
1015.148886	1.701006	nback_4	6062.802770	Steps:4 KeyPress:False Matched:False	1	n/a	4	False	False	n/a	n/a	n/a	n-backMarkers
1015.732770	0.060000	dropped_samples	6063.386655	Dropped 15 samples	n/a	n/a	n/a	n/a	n/a	n/a	n/a	15	UoHDataOffsetStream
1016.849873	1.701006	nback_4	6064.503757	Steps:4 KeyPress:False Matched:False	1	n/a	4	False	False	n/a	n/a	n/a	n-backMarkers
1018.550963	1.701006	nback_4	6066.204848	Steps:4 KeyPress:False Matched:False	1	n/a	4	False	False	n/a	n/a	n/a	n-backMarkers
1019.624392	0.020000	dropped_samples	6067.278276	Dropped 5 samples	n/a	n/a	n/a	n/a	n/a	n/a	n/a	5	UoHDataOffsetStream
1020.251244	1.701006	nback_4	6067.905129	Steps:4 KeyPress:False Matched:True	0	n/a	4	False	True	n/a	n/a	n/a	n-backMarkers
1021.952980	1.701006	nback_4	6069.606865	Steps:4 KeyPress:False Matched:True	0	n/a	4	False	True	n/a	n/a	n/a	n-backMarkers
1023.653876	1.701006	nback_4	6071.307761	Steps:4 KeyPress:False Matched:False	1	n/a	4	False	False	n/a	n/a	n/a	n-backMarkers
1025.354799	1.701006	nback_4	6073.008684	Steps:4 KeyPress:False Matched:False	1	n/a	4	False	False	n/a	n/a	n/a	n-backMarkers
1026.304201	0.020000	dropped_samples	6073.958085	Dropped 5 samples	n/a	n/a	n/a	n/a	n/a	n/a	n/a	5	UoHDataOffsetStream
1026.345156	0.044000	dropped_samples	6073.999040	Dropped 11 samples	n/a	n/a	n/a	n/a	n/a	n/a	n/a	11	UoHDataOffsetStream
1027.055002	1.701006	nback_4	6074.708887	Steps:4 KeyPress:False Matched:False	1	n/a	4	False	False	n/a	n/a	n/a	n-backMarkers
1027.166646	0.012000	dropped_samples	6074.820531	Dropped 3 samples	n/a	n/a	n/a	n/a	n/a	n/a	n/a	3	UoHDataOffsetStream
1028.756121	1.701006	nback_4	6076.410005	Steps:4 KeyPress:False Matched:True	0	n/a	4	False	True	n/a	n/a	n/a	n-backMarkers
1030.457961	1.701006	nback_4	6078.111845	Steps:4 KeyPress:False Matched:True	0	n/a	4	False	True	n/a	n/a	n/a	n-backMarkers
1032.159649	1.701006	nback_4	6079.813533	Steps:4 KeyPress:False Matched:False	1	n/a	4	False	False	n/a	n/a	n/a	n-backMarkers
1033.861391	1.701006	nback_4	6081.515276	Steps:4 KeyPress:False Matched:False	1	n/a	4	False	False	n/a	n/a	n/a	n-backMarkers
1034.453557	0.012000	dropped_samples	6082.107442	Dropped 3 samples	n/a	n/a	n/a	n/a	n/a	n/a	n/a	3	UoHDataOffsetStream
1035.562086	1.701006	nback_4	6083.215970	Steps:4 KeyPress:False Matched:False	1	n/a	4	False	False	n/a	n/a	n/a	n-backMarkers
1037.262927	1.701006	nback_4	6084.916811	Steps:4 KeyPress:False Matched:True	0	n/a	4	False	True	n/a	n/a	n/a	n-backMarkers
1038.965161	1.701006	nback_4	6086.619046	Steps:4 KeyPress:False Matched:False	1	n/a	4	False	False	n/a	n/a	n/a	n-backMarkers
1040.665067	1.701006	nback_4	6088.318952	Steps:4 KeyPress:False Matched:True	0	n/a	4	False	True	n/a	n/a	n/a	n-backMarkers
1042.366968	1.701006	nback_4	6090.020853	Steps:4 KeyPress:False Matched:False	1	n/a	4	False	False	n/a	n/a	n/a	n-backMarkers
1044.067041	1.701006	nback_4	6091.720925	Steps:4 KeyPress:False Matched:False	1	n/a	4	False	False	n/a	n/a	n/a	n-backMarkers
1045.767799	1.701006	nback_4	6093.421684	Steps:4 KeyPress:False Matched:False	1	n/a	4	False	False	n/a	n/a	n/a	n-backMarkers
1047.461389	0.004000	dropped_samples	6095.115274	Dropped 1 samples	n/a	n/a	n/a	n/a	n/a	n/a	n/a	1	UoHDataOffsetStream
1047.468398	1.701006	nback_4	6095.122283	Steps:4 KeyPress:False Matched:True	0	n/a	4	False	True	n/a	n/a	n/a	n-backMarkers
1049.169110	1.701006	nback_4	6096.822995	Steps:4 KeyPress:False Matched:True	0	n/a	4	False	True	n/a	n/a	n/a	n-backMarkers
1050.870042	1.701006	nback_4	6098.523926	Steps:4 KeyPress:False Matched:False	1	n/a	4	False	False	n/a	n/a	n/a	n-backMarkers
1052.571885	1.701006	nback_4	6100.225769	Steps:4 KeyPress:False Matched:False	1	n/a	4	False	False	n/a	n/a	n/a	n-backMarkers
1054.272811	1.701006	nback_4	6101.926696	Steps:4 KeyPress:False Matched:False	1	n/a	4	False	False	n/a	n/a	n/a	n-backMarkers
1055.973919	1.701006	nback_4	6103.627804	Steps:4 KeyPress:False Matched:True	0	n/a	4	False	True	n/a	n/a	n/a	n-backMarkers
1057.675027	1.701006	nback_4	6105.328912	Steps:4 KeyPress:False Matched:False	1	n/a	4	False	False	n/a	n/a	n/a	n-backMarkers
1059.375966	1.701006	nback_4	6107.029851	Steps:4 KeyPress:False Matched:True	0	n/a	4	False	True	n/a	n/a	n/a	n-backMarkers
1061.076132	1.701006	nback_4	6108.730017	Steps:4 KeyPress:False Matched:False	1	n/a	4	False	False	n/a	n/a	n/a	n-backMarkers
1062.778967	1.701006	nback_4	6110.432851	Steps:4 KeyPress:False Matched:False	1	n/a	4	False	False	n/a	n/a	n/a	n-backMarkers
1064.072749	0.004000	dropped_samples	6111.726634	Dropped 1 samples	n/a	n/a	n/a	n/a	n/a	n/a	n/a	1	UoHDataOffsetStream
1064.479081	1.701006	nback_4	6112.132965	Steps:4 KeyPress:False Matched:False	1	n/a	4	False	False	n/a	n/a	n/a	n-backMarkers
1064.790564	0.004000	dropped_samples	6112.444448	Dropped 1 samples	n/a	n/a	n/a	n/a	n/a	n/a	n/a	1	UoHDataOffsetStream
1066.180080	1.701006	nback_4	6113.833965	Steps:4 KeyPress:False Matched:True	0	n/a	4	False	True	n/a	n/a	n/a	n-backMarkers
1067.046424	0.004000	dropped_samples	6114.700308	Dropped 1 samples	n/a	n/a	n/a	n/a	n/a	n/a	n/a	1	UoHDataOffsetStream
1067.881032	1.701006	nback_4	6115.534917	Steps:4 KeyPress:False Matched:False	1	n/a	4	False	False	n/a	n/a	n/a	n-backMarkers
1069.582927	1.701006	nback_4	6117.236811	Steps:4 KeyPress:False Matched:True	0	n/a	4	False	True	n/a	n/a	n/a	n-backMarkers
1071.283941	1.701006	nback_4	6118.937825	Steps:4 KeyPress:False Matched:False	1	n/a	4	False	False	n/a	n/a	n/a	n-backMarkers
1072.985182	1.701006	nback_4	6120.639067	Steps:4 KeyPress:False Matched:False	1	n/a	4	False	False	n/a	n/a	n/a	n-backMarkers
1074.685282	1.701006	nback_4	6122.339167	Steps:4 KeyPress:False Matched:False	1	n/a	4	False	False	n/a	n/a	n/a	n-backMarkers
1075.401004	0.004000	dropped_samples	6123.054889	Dropped 1 samples	n/a	n/a	n/a	n/a	n/a	n/a	n/a	1	UoHDataOffsetStream
1076.385905	1.701006	nback_4	6124.039789	Steps:4 KeyPress:False Matched:True	0	n/a	4	False	True	n/a	n/a	n/a	n-backMarkers
1078.087087	1.701006	nback_4	6125.740972	Steps:4 KeyPress:False Matched:True	0	n/a	4	False	True	n/a	n/a	n/a	n-backMarkers
1079.787936	1.701006	nback_4	6127.441821	Steps:4 KeyPress:False Matched:False	1	n/a	4	False	False	n/a	n/a	n/a	n-backMarkers
1081.113848	0.004000	dropped_samples	6128.767732	Dropped 1 samples	n/a	n/a	n/a	n/a	n/a	n/a	n/a	1	UoHDataOffsetStream
1081.488050	1.701006	nback_4	6129.141935	Steps:4 KeyPress:False Matched:False	1	n/a	4	False	False	n/a	n/a	n/a	n-backMarkers
1083.125578	0.004000	dropped_samples	6130.779462	Dropped 1 samples	n/a	n/a	n/a	n/a	n/a	n/a	n/a	1	UoHDataOffsetStream
1083.189419	1.701006	nback_4	6130.843304	Steps:4 KeyPress:False Matched:False	1	n/a	4	False	False	n/a	n/a	n/a	n-backMarkers
1084.889928	1.701006	nback_4	6132.543812	Steps:4 KeyPress:False Matched:True	0	n/a	4	False	True	n/a	n/a	n/a	n-backMarkers
1086.294509	0.004000	dropped_samples	6133.948394	Dropped 1 samples	n/a	n/a	n/a	n/a	n/a	n/a	n/a	1	UoHDataOffsetStream
1086.590984	1.701006	nback_4	6134.244869	Steps:4 KeyPress:False Matched:False	1	n/a	4	False	False	n/a	n/a	n/a	n-backMarkers
1086.821849	0.004000	dropped_samples	6134.475734	Dropped 1 samples	n/a	n/a	n/a	n/a	n/a	n/a	n/a	1	UoHDataOffsetStream
1088.292865	1.701006	nback_4	6135.946750	Steps:4 KeyPress:False Matched:False	1	n/a	4	False	False	n/a	n/a	n/a	n-backMarkers
1089.993823	1.701006	nback_4	6137.647708	Steps:4 KeyPress:False Matched:False	1	n/a	4	False	False	n/a	n/a	n/a	n-backMarkers
1091.694957	1.701006	nback_4	6139.348842	Steps:4 KeyPress:False Matched:True	0	n/a	4	False	True	n/a	n/a	n/a	n-backMarkers
1093.395911	1.701006	nback_4	6141.049795	Steps:4 KeyPress:False Matched:True	0	n/a	4	False	True	n/a	n/a	n/a	n-backMarkers
1095.096344	1.701006	nback_4	6142.750228	Steps:4 KeyPress:False Matched:False	1	n/a	4	False	False	n/a	n/a	n/a	n-backMarkers
1096.797764	1.701006	nback_4	6144.451649	Steps:4 KeyPress:False Matched:False	1	n/a	4	False	False	n/a	n/a	n/a	n-backMarkers
1097.046511	0.004000	dropped_samples	6144.700396	Dropped 1 samples	n/a	n/a	n/a	n/a	n/a	n/a	n/a	1	UoHDataOffsetStream
1098.498828	1.701006	nback_4	6146.152712	Steps:4 KeyPress:False Matched:False	1	n/a	4	False	False	n/a	n/a	n/a	n-backMarkers
1100.199837	1.701006	nback_4	6147.853721	Steps:4 KeyPress:False Matched:True	0	n/a	4	False	True	n/a	n/a	n/a	n-backMarkers
1101.846328	0.004000	dropped_samples	6149.500213	Dropped 1 samples	n/a	n/a	n/a	n/a	n/a	n/a	n/a	1	UoHDataOffsetStream
1101.900877	1.701006	nback_4	6149.554762	Steps:4 KeyPress:False Matched:False	1	n/a	4	False	False	n/a	n/a	n/a	n-backMarkers
1103.601170	1.701006	nback_4	6151.255054	Steps:4 KeyPress:False Matched:False	1	n/a	4	False	False	n/a	n/a	n/a	n-backMarkers
1105.064121	0.004000	dropped_samples	6152.718006	Dropped 1 samples	n/a	n/a	n/a	n/a	n/a	n/a	n/a	1	UoHDataOffsetStream
1105.302062	1.701006	nback_4	6152.955947	Steps:4 KeyPress:False Matched:True	0	n/a	4	False	True	n/a	n/a	n/a	n-backMarkers
1107.003010	1.701006	nback_4	6154.656894	Steps:4 KeyPress:False Matched:False	1	n/a	4	False	False	n/a	n/a	n/a	n-backMarkers
1108.704007	1.701006	nback_4	6156.357891	Steps:4 KeyPress:False Matched:False	1	n/a	4	False	False	n/a	n/a	n/a	n-backMarkers
1110.405804	1.701006	nback_4	6158.059688	Steps:4 KeyPress:False Matched:False	1	n/a	4	False	False	n/a	n/a	n/a	n-backMarkers
1112.105922	1.701006	nback_4	6159.759806	Steps:4 KeyPress:False Matched:True	0	n/a	4	False	True	n/a	n/a	n/a	n-backMarkers
1113.807012	1.701006	nback_4	6161.460897	Steps:4 KeyPress:False Matched:False	1	n/a	4	False	False	n/a	n/a	n/a	n-backMarkers
1115.507715	1.701006	nback_4	6163.161600	Steps:4 KeyPress:False Matched:False	1	n/a	4	False	False	n/a	n/a	n/a	n-backMarkers
1117.209524	1.701006	nback_4	6164.863408	Steps:4 KeyPress:False Matched:True	0	n/a	4	False	True	n/a	n/a	n/a	n-backMarkers
