onset	duration	trial_type	timestamp_lsl	marker	response_accuracy	nback_level	key_press	matched	outcome	istutorial	dropped_samples	marker_stream
0.164579	0.012000	dropped_samples	4082.114509	Dropped 3 samples	n/a	n/a	n/a	n/a	n/a	n/a	3	UoHDataOffsetStream
0.202303	0.012000	dropped_samples	4082.152233	Dropped 3 samples	n/a	n/a	n/a	n/a	n/a	n/a	3	UoHDataOffsetStream
0.778484	0.012000	dropped_samples	4082.728414	Dropped 3 samples	n/a	n/a	n/a	n/a	n/a	n/a	3	UoHDataOffsetStream
1.926219	0.012000	dropped_samples	4083.876149	Dropped 3 samples	n/a	n/a	n/a	n/a	n/a	n/a	3	UoHDataOffsetStream
2.313466	0.012000	dropped_samples	4084.263396	Dropped 3 samples	n/a	n/a	n/a	n/a	n/a	n/a	3	UoHDataOffsetStream
2.502177	0.012000	dropped_samples	4084.452107	Dropped 3 samples	n/a	n/a	n/a	n/a	n/a	n/a	3	UoHDataOffsetStream
3.849792	0.012000	dropped_samples	4085.799721	Dropped 3 samples	n/a	n/a	n/a	n/a	n/a	n/a	3	UoHDataOffsetStream
4.230625	0.008000	dropped_samples	4086.180555	Dropped 2 samples	n/a	n/a	n/a	n/a	n/a	n/a	2	UoHDataOffsetStream
4.377151	0.004000	dropped_samples	4086.327081	Dropped 1 samples	n/a	n/a	n/a	n/a	n/a	n/a	1	UoHDataOffsetStream
5.094858	0.016000	dropped_samples	4087.044788	Dropped 4 samples	n/a	n/a	n/a	n/a	n/a	n/a	4	UoHDataOffsetStream
5.768755	0.012000	dropped_samples	4087.718684	Dropped 3 samples	n/a	n/a	n/a	n/a	n/a	n/a	3	UoHDataOffsetStream
6.198619	0.008000	dropped_samples	4088.148549	Dropped 2 samples	n/a	n/a	n/a	n/a	n/a	n/a	2	UoHDataOffsetStream
6.988870	0.012000	dropped_samples	4088.938799	Dropped 3 samples	n/a	n/a	n/a	n/a	n/a	n/a	3	UoHDataOffsetStream
7.043602	0.012000	dropped_samples	4088.993532	Dropped 3 samples	n/a	n/a	n/a	n/a	n/a	n/a	3	UoHDataOffsetStream
7.048813	0.052000	dropped_samples	4088.998743	Dropped 13 samples	n/a	n/a	n/a	n/a	n/a	n/a	13	UoHDataOffsetStream
7.221203	0.008000	dropped_samples	4089.171132	Dropped 2 samples	n/a	n/a	n/a	n/a	n/a	n/a	2	UoHDataOffsetStream
7.258088	0.012000	dropped_samples	4089.208018	Dropped 3 samples	n/a	n/a	n/a	n/a	n/a	n/a	3	UoHDataOffsetStream
8.427842	0.004000	dropped_samples	4090.377772	Dropped 1 samples	n/a	n/a	n/a	n/a	n/a	n/a	1	UoHDataOffsetStream
8.603719	0.012000	dropped_samples	4090.553648	Dropped 3 samples	n/a	n/a	n/a	n/a	n/a	n/a	3	UoHDataOffsetStream
8.604382	0.012000	dropped_samples	4090.554312	Dropped 3 samples	n/a	n/a	n/a	n/a	n/a	n/a	3	UoHDataOffsetStream
8.649613	0.068000	dropped_samples	4090.599542	Dropped 17 samples	n/a	n/a	n/a	n/a	n/a	n/a	17	UoHDataOffsetStream
9.372271	0.012000	dropped_samples	4091.322200	Dropped 3 samples	n/a	n/a	n/a	n/a	n/a	n/a	3	UoHDataOffsetStream
9.382140	0.012000	dropped_samples	4091.332069	Dropped 3 samples	n/a	n/a	n/a	n/a	n/a	n/a	3	UoHDataOffsetStream
9.465024	0.064000	dropped_samples	4091.414954	Dropped 16 samples	n/a	n/a	n/a	n/a	n/a	n/a	16	UoHDataOffsetStream
9.655479	0.008000	dropped_samples	4091.605409	Dropped 2 samples	n/a	n/a	n/a	n/a	n/a	n/a	2	UoHDataOffsetStream
9.992386	0.012000	dropped_samples	4091.942316	Dropped 3 samples	n/a	n/a	n/a	n/a	n/a	n/a	3	UoHDataOffsetStream
11.262393	0.028000	dropped_samples	4093.212323	Dropped 7 samples	n/a	n/a	n/a	n/a	n/a	n/a	7	UoHDataOffsetStream
11.286189	0.148000	dropped_samples	4093.236119	Dropped 37 samples	n/a	n/a	n/a	n/a	n/a	n/a	37	UoHDataOffsetStream
11.530466	0.012000	dropped_samples	4093.480396	Dropped 3 samples	n/a	n/a	n/a	n/a	n/a	n/a	3	UoHDataOffsetStream
12.634178	0.012000	dropped_samples	4094.584108	Dropped 3 samples	n/a	n/a	n/a	n/a	n/a	n/a	3	UoHDataOffsetStream
13.449391	0.012000	dropped_samples	4095.399321	Dropped 3 samples	n/a	n/a	n/a	n/a	n/a	n/a	3	UoHDataOffsetStream
14.982618	0.012000	dropped_samples	4096.932548	Dropped 3 samples	n/a	n/a	n/a	n/a	n/a	n/a	3	UoHDataOffsetStream
17.040678	0.012000	dropped_samples	4098.990607	Dropped 3 samples	n/a	n/a	n/a	n/a	n/a	n/a	3	UoHDataOffsetStream
17.161577	0.028000	dropped_samples	4099.111506	Dropped 7 samples	n/a	n/a	n/a	n/a	n/a	n/a	7	UoHDataOffsetStream
17.162989	0.148000	dropped_samples	4099.112919	Dropped 37 samples	n/a	n/a	n/a	n/a	n/a	n/a	37	UoHDataOffsetStream
17.303672	0.056000	dropped_samples	4099.253601	Dropped 14 samples	n/a	n/a	n/a	n/a	n/a	n/a	14	UoHDataOffsetStream
17.336104	0.012000	dropped_samples	4099.286034	Dropped 3 samples	n/a	n/a	n/a	n/a	n/a	n/a	3	UoHDataOffsetStream
17.673070	0.012000	dropped_samples	4099.623000	Dropped 3 samples	n/a	n/a	n/a	n/a	n/a	n/a	3	UoHDataOffsetStream
18.966961	0.004000	dropped_samples	4100.916890	Dropped 1 samples	n/a	n/a	n/a	n/a	n/a	n/a	1	UoHDataOffsetStream
19.206269	0.012000	dropped_samples	4101.156199	Dropped 3 samples	n/a	n/a	n/a	n/a	n/a	n/a	3	UoHDataOffsetStream
20.407516	0.012000	dropped_samples	4102.357445	Dropped 3 samples	n/a	n/a	n/a	n/a	n/a	n/a	3	UoHDataOffsetStream
21.130106	0.012000	dropped_samples	4103.080036	Dropped 3 samples	n/a	n/a	n/a	n/a	n/a	n/a	3	UoHDataOffsetStream
22.282441	0.012000	dropped_samples	4104.232371	Dropped 3 samples	n/a	n/a	n/a	n/a	n/a	n/a	3	UoHDataOffsetStream
23.711565	0.012000	dropped_samples	4105.661495	Dropped 3 samples	n/a	n/a	n/a	n/a	n/a	n/a	3	UoHDataOffsetStream
23.766812	0.052000	dropped_samples	4105.716742	Dropped 13 samples	n/a	n/a	n/a	n/a	n/a	n/a	13	UoHDataOffsetStream
23.962166	0.004000	dropped_samples	4105.912096	Dropped 1 samples	n/a	n/a	n/a	n/a	n/a	n/a	1	UoHDataOffsetStream
24.631077	0.012000	dropped_samples	4106.581006	Dropped 3 samples	n/a	n/a	n/a	n/a	n/a	n/a	3	UoHDataOffsetStream
25.642593	0.012000	dropped_samples	4107.592523	Dropped 3 samples	n/a	n/a	n/a	n/a	n/a	n/a	3	UoHDataOffsetStream
27.216192	0.012000	dropped_samples	4109.166122	Dropped 3 samples	n/a	n/a	n/a	n/a	n/a	n/a	3	UoHDataOffsetStream
27.217319	0.012000	dropped_samples	4109.167249	Dropped 3 samples	n/a	n/a	n/a	n/a	n/a	n/a	3	UoHDataOffsetStream
27.272701	0.100000	dropped_samples	4109.222631	Dropped 25 samples	n/a	n/a	n/a	n/a	n/a	n/a	25	UoHDataOffsetStream
28.196817	0.012000	dropped_samples	4110.146747	Dropped 3 samples	n/a	n/a	n/a	n/a	n/a	n/a	3	UoHDataOffsetStream
28.234585	0.012000	dropped_samples	4110.184515	Dropped 3 samples	n/a	n/a	n/a	n/a	n/a	n/a	3	UoHDataOffsetStream
28.566637	0.012000	dropped_samples	4110.516567	Dropped 3 samples	n/a	n/a	n/a	n/a	n/a	n/a	3	UoHDataOffsetStream
28.854763	0.008000	dropped_samples	4110.804693	Dropped 2 samples	n/a	n/a	n/a	n/a	n/a	n/a	2	UoHDataOffsetStream
29.670110	0.012000	dropped_samples	4111.620040	Dropped 3 samples	n/a	n/a	n/a	n/a	n/a	n/a	3	UoHDataOffsetStream
30.392818	0.004000	dropped_samples	4112.342748	Dropped 1 samples	n/a	n/a	n/a	n/a	n/a	n/a	1	UoHDataOffsetStream
31.132254	0.024000	dropped_samples	4113.082184	Dropped 6 samples	n/a	n/a	n/a	n/a	n/a	n/a	6	UoHDataOffsetStream
31.159390	0.048000	dropped_samples	4113.109320	Dropped 12 samples	n/a	n/a	n/a	n/a	n/a	n/a	12	UoHDataOffsetStream
31.305915	0.004000	dropped_samples	4113.255845	Dropped 1 samples	n/a	n/a	n/a	n/a	n/a	n/a	1	UoHDataOffsetStream
31.882069	0.012000	dropped_samples	4113.831999	Dropped 3 samples	n/a	n/a	n/a	n/a	n/a	n/a	3	UoHDataOffsetStream
33.034400	0.012000	dropped_samples	4114.984330	Dropped 3 samples	n/a	n/a	n/a	n/a	n/a	n/a	3	UoHDataOffsetStream
33.415254	0.012000	dropped_samples	4115.365184	Dropped 3 samples	n/a	n/a	n/a	n/a	n/a	n/a	3	UoHDataOffsetStream
33.464029	0.004000	dropped_samples	4115.413959	Dropped 1 samples	n/a	n/a	n/a	n/a	n/a	n/a	1	UoHDataOffsetStream
35.773822	0.012000	dropped_samples	4117.723752	Dropped 3 samples	n/a	n/a	n/a	n/a	n/a	n/a	3	UoHDataOffsetStream
35.817589	0.020000	dropped_samples	4117.767518	Dropped 5 samples	n/a	n/a	n/a	n/a	n/a	n/a	5	UoHDataOffsetStream
38.698462	0.008000	dropped_samples	4120.648391	Dropped 2 samples	n/a	n/a	n/a	n/a	n/a	n/a	2	UoHDataOffsetStream
41.335222	0.004000	dropped_samples	4123.285152	Dropped 1 samples	n/a	n/a	n/a	n/a	n/a	n/a	1	UoHDataOffsetStream
43.924176	0.000000	started_tutorial_n_back	4125.874105	Started tutorial n-back	n/a	n/a	n/a	n/a	n/a	true	n/a	n-backMarkers
46.999262	0.012000	dropped_samples	4128.949192	Dropped 3 samples	n/a	n/a	n/a	n/a	n/a	n/a	3	UoHDataOffsetStream
47.673174	0.004000	dropped_samples	4129.623104	Dropped 1 samples	n/a	n/a	n/a	n/a	n/a	n/a	1	UoHDataOffsetStream
51.222934	0.012000	dropped_samples	4133.172863	Dropped 3 samples	n/a	n/a	n/a	n/a	n/a	n/a	3	UoHDataOffsetStream
52.038364	0.012000	dropped_samples	4133.988294	Dropped 3 samples	n/a	n/a	n/a	n/a	n/a	n/a	3	UoHDataOffsetStream
57.174912	0.004000	dropped_samples	4139.124842	Dropped 1 samples	n/a	n/a	n/a	n/a	n/a	n/a	1	UoHDataOffsetStream
57.946531	0.004000	dropped_samples	4139.896461	Dropped 1 samples	n/a	n/a	n/a	n/a	n/a	n/a	1	UoHDataOffsetStream
62.170468	0.004000	dropped_samples	4144.120398	Dropped 1 samples	n/a	n/a	n/a	n/a	n/a	n/a	1	UoHDataOffsetStream
63.366505	0.004000	dropped_samples	4145.316434	Dropped 1 samples	n/a	n/a	n/a	n/a	n/a	n/a	1	UoHDataOffsetStream
69.030565	0.012000	dropped_samples	4150.980495	Dropped 3 samples	n/a	n/a	n/a	n/a	n/a	n/a	3	UoHDataOffsetStream
77.575494	0.004000	dropped_samples	4159.525424	Dropped 1 samples	n/a	n/a	n/a	n/a	n/a	n/a	1	UoHDataOffsetStream
78.200683	0.004000	dropped_samples	4160.150613	Dropped 1 samples	n/a	n/a	n/a	n/a	n/a	n/a	1	UoHDataOffsetStream
78.347076	0.004000	dropped_samples	4160.297005	Dropped 1 samples	n/a	n/a	n/a	n/a	n/a	n/a	1	UoHDataOffsetStream
82.858732	0.004000	dropped_samples	4164.808662	Dropped 1 samples	n/a	n/a	n/a	n/a	n/a	n/a	1	UoHDataOffsetStream
87.560912	0.012000	dropped_samples	4169.510841	Dropped 3 samples	n/a	n/a	n/a	n/a	n/a	n/a	3	UoHDataOffsetStream
92.170283	0.004000	dropped_samples	4174.120212	Dropped 1 samples	n/a	n/a	n/a	n/a	n/a	n/a	1	UoHDataOffsetStream
98.410602	0.004000	dropped_samples	4180.360532	Dropped 1 samples	n/a	n/a	n/a	n/a	n/a	n/a	1	UoHDataOffsetStream
100.090208	0.004000	dropped_samples	4182.040138	Dropped 1 samples	n/a	n/a	n/a	n/a	n/a	n/a	1	UoHDataOffsetStream
105.607941	0.012000	dropped_samples	4187.557871	Dropped 3 samples	n/a	n/a	n/a	n/a	n/a	n/a	3	UoHDataOffsetStream
107.673256	0.012000	dropped_samples	4189.623186	Dropped 3 samples	n/a	n/a	n/a	n/a	n/a	n/a	3	UoHDataOffsetStream
110.168462	0.004000	dropped_samples	4192.118392	Dropped 1 samples	n/a	n/a	n/a	n/a	n/a	n/a	1	UoHDataOffsetStream
110.695761	0.004000	dropped_samples	4192.645691	Dropped 1 samples	n/a	n/a	n/a	n/a	n/a	n/a	1	UoHDataOffsetStream
110.927145	0.000000	1-back	4192.877075	Steps:1 KeyPress:False Matched:False	1	1	false	false	Correct	true	n/a	n-backMarkers
112.628711	0.000000	1-back	4194.578640	Steps:1 KeyPress:False Matched:False	1	1	false	false	Correct	true	n/a	n-backMarkers
114.330685	0.000000	1-back	4196.280615	Steps:1 KeyPress:False Matched:False	1	1	false	false	Correct	true	n/a	n-backMarkers
116.027712	0.012000	dropped_samples	4197.977642	Dropped 3 samples	n/a	n/a	n/a	n/a	n/a	n/a	3	UoHDataOffsetStream
116.032313	0.000000	1-back	4197.982243	Steps:1 KeyPress:False Matched:False	1	1	false	false	Correct	true	n/a	n-backMarkers
117.734130	0.000000	1-back	4199.684060	Steps:1 KeyPress:False Matched:False	1	1	false	false	Correct	true	n/a	n-backMarkers
119.436058	0.000000	1-back	4201.385988	Steps:1 KeyPress:False Matched:False	1	1	false	false	Correct	true	n/a	n-backMarkers
120.153826	0.012000	dropped_samples	4202.103755	Dropped 3 samples	n/a	n/a	n/a	n/a	n/a	n/a	3	UoHDataOffsetStream
121.136154	0.000000	1-back	4203.086084	Steps:1 KeyPress:False Matched:False	1	1	false	false	Correct	true	n/a	n-backMarkers
122.837301	0.000000	1-back	4204.787231	Steps:1 KeyPress:False Matched:False	1	1	false	false	Correct	true	n/a	n-backMarkers
124.538171	0.000000	1-back	4206.488101	Steps:1 KeyPress:False Matched:True	0	1	false	true	Wrong	true	n/a	n-backMarkers
126.240004	0.000000	1-back	4208.189934	Steps:1 KeyPress:False Matched:True	0	1	false	true	Wrong	true	n/a	n-backMarkers
127.736806	0.012000	dropped_samples	4209.686736	Dropped 3 samples	n/a	n/a	n/a	n/a	n/a	n/a	3	UoHDataOffsetStream
127.941303	0.000000	1-back	4209.891232	Steps:1 KeyPress:False Matched:False	1	1	false	false	Correct	true	n/a	n-backMarkers
129.641698	0.000000	1-back	4211.591628	Steps:1 KeyPress:True Matched:False	0	1	true	false	Wrong	true	n/a	n-backMarkers
131.342324	0.000000	1-back	4213.292254	Steps:1 KeyPress:False Matched:False	1	1	false	false	Correct	true	n/a	n-backMarkers
133.043425	0.000000	1-back	4214.993355	Steps:1 KeyPress:True Matched:False	0	1	true	false	Wrong	true	n/a	n-backMarkers
134.743956	0.000000	1-back	4216.693886	Steps:1 KeyPress:False Matched:False	1	1	false	false	Correct	true	n/a	n-backMarkers
136.140166	0.004000	dropped_samples	4218.090095	Dropped 1 samples	n/a	n/a	n/a	n/a	n/a	n/a	1	UoHDataOffsetStream
136.445356	0.000000	1-back	4218.395286	Steps:1 KeyPress:True Matched:False	0	1	true	false	Wrong	true	n/a	n-backMarkers
138.146392	0.000000	1-back	4220.096321	Steps:1 KeyPress:False Matched:False	1	1	false	false	Correct	true	n/a	n-backMarkers
139.847161	0.000000	1-back	4221.797091	Steps:1 KeyPress:True Matched:False	0	1	true	false	Wrong	true	n/a	n-backMarkers
139.880279	0.004000	dropped_samples	4221.830209	Dropped 1 samples	n/a	n/a	n/a	n/a	n/a	n/a	1	UoHDataOffsetStream
141.548148	0.000000	1-back	4223.498078	Steps:1 KeyPress:False Matched:False	1	1	false	false	Correct	true	n/a	n-backMarkers
143.248852	0.000000	1-back	4225.198782	Steps:1 KeyPress:True Matched:False	0	1	true	false	Wrong	true	n/a	n-backMarkers
144.950557	0.000000	1-back	4226.900487	Steps:1 KeyPress:False Matched:False	1	1	false	false	Correct	true	n/a	n-backMarkers
146.267106	0.012000	dropped_samples	4228.217036	Dropped 3 samples	n/a	n/a	n/a	n/a	n/a	n/a	3	UoHDataOffsetStream
146.892151	0.004000	dropped_samples	4228.842081	Dropped 1 samples	n/a	n/a	n/a	n/a	n/a	n/a	1	UoHDataOffsetStream
151.882344	0.004000	dropped_samples	4233.832274	Dropped 1 samples	n/a	n/a	n/a	n/a	n/a	n/a	1	UoHDataOffsetStream
153.645121	0.000000	2-back	4235.595051	Steps:2 KeyPress:False Matched:False	1	2	false	false	Correct	true	n/a	n-backMarkers
155.346332	0.000000	2-back	4237.296262	Steps:2 KeyPress:False Matched:False	1	2	false	false	Correct	true	n/a	n-backMarkers
156.584527	0.012000	dropped_samples	4238.534457	Dropped 3 samples	n/a	n/a	n/a	n/a	n/a	n/a	3	UoHDataOffsetStream
157.046958	0.000000	2-back	4238.996888	Steps:2 KeyPress:True Matched:False	0	2	true	false	Wrong	true	n/a	n-backMarkers
158.748052	0.000000	2-back	4240.697981	Steps:2 KeyPress:False Matched:True	0	2	false	true	Wrong	true	n/a	n-backMarkers
159.226052	0.004000	dropped_samples	4241.175982	Dropped 1 samples	n/a	n/a	n/a	n/a	n/a	n/a	1	UoHDataOffsetStream
159.899895	0.004000	dropped_samples	4241.849825	Dropped 1 samples	n/a	n/a	n/a	n/a	n/a	n/a	1	UoHDataOffsetStream
160.450135	0.000000	2-back	4242.400065	Steps:2 KeyPress:False Matched:False	1	2	false	false	Correct	true	n/a	n-backMarkers
161.960519	0.012000	dropped_samples	4243.910449	Dropped 3 samples	n/a	n/a	n/a	n/a	n/a	n/a	3	UoHDataOffsetStream
162.150929	0.000000	2-back	4244.100859	Steps:2 KeyPress:True Matched:True	1	2	true	true	Correct	true	n/a	n-backMarkers
163.852248	0.000000	2-back	4245.802178	Steps:2 KeyPress:False Matched:False	1	2	false	false	Correct	true	n/a	n-backMarkers
165.515144	0.012000	dropped_samples	4247.465074	Dropped 3 samples	n/a	n/a	n/a	n/a	n/a	n/a	3	UoHDataOffsetStream
165.553635	0.000000	2-back	4247.503565	Steps:2 KeyPress:False Matched:False	1	2	false	false	Correct	true	n/a	n-backMarkers
167.254662	0.000000	2-back	4249.204592	Steps:2 KeyPress:True Matched:False	0	2	true	false	Wrong	true	n/a	n-backMarkers
168.956012	0.000000	2-back	4250.905942	Steps:2 KeyPress:False Matched:True	0	2	false	true	Wrong	true	n/a	n-backMarkers
169.738837	0.004000	dropped_samples	4251.688767	Dropped 1 samples	n/a	n/a	n/a	n/a	n/a	n/a	1	UoHDataOffsetStream
170.656399	0.000000	2-back	4252.606329	Steps:2 KeyPress:False Matched:False	1	2	false	false	Correct	true	n/a	n-backMarkers
172.357059	0.000000	2-back	4254.306989	Steps:2 KeyPress:True Matched:False	0	2	true	false	Wrong	true	n/a	n-backMarkers
173.099118	0.004000	dropped_samples	4255.049048	Dropped 1 samples	n/a	n/a	n/a	n/a	n/a	n/a	1	UoHDataOffsetStream
174.057230	0.000000	2-back	4256.007160	Steps:2 KeyPress:False Matched:False	1	2	false	false	Correct	true	n/a	n-backMarkers
175.256414	0.004000	dropped_samples	4257.206344	Dropped 1 samples	n/a	n/a	n/a	n/a	n/a	n/a	1	UoHDataOffsetStream
175.758179	0.000000	2-back	4257.708109	Steps:2 KeyPress:False Matched:True	0	2	false	true	Wrong	true	n/a	n-backMarkers
177.459966	0.000000	2-back	4259.409896	Steps:2 KeyPress:False Matched:False	1	2	false	false	Correct	true	n/a	n-backMarkers
179.160865	0.000000	2-back	4261.110794	Steps:2 KeyPress:False Matched:False	1	2	false	false	Correct	true	n/a	n-backMarkers
180.153879	0.012000	dropped_samples	4262.103808	Dropped 3 samples	n/a	n/a	n/a	n/a	n/a	n/a	3	UoHDataOffsetStream
180.861164	0.000000	2-back	4262.811094	Steps:2 KeyPress:False Matched:False	1	2	false	false	Correct	true	n/a	n-backMarkers
182.562053	0.000000	2-back	4264.511983	Steps:2 KeyPress:True Matched:False	0	2	true	false	Wrong	true	n/a	n-backMarkers
184.263555	0.000000	2-back	4266.213485	Steps:2 KeyPress:False Matched:True	0	2	false	true	Wrong	true	n/a	n-backMarkers
185.964664	0.000000	2-back	4267.914594	Steps:2 KeyPress:False Matched:False	1	2	false	false	Correct	true	n/a	n-backMarkers
190.905914	0.012000	dropped_samples	4272.855844	Dropped 3 samples	n/a	n/a	n/a	n/a	n/a	n/a	3	UoHDataOffsetStream
194.669196	0.000000	3-back	4276.619126	Steps:3 KeyPress:False Matched:False	1	3	false	false	Correct	true	n/a	n-backMarkers
195.417682	0.004000	dropped_samples	4277.367612	Dropped 1 samples	n/a	n/a	n/a	n/a	n/a	n/a	1	UoHDataOffsetStream
196.370374	0.000000	3-back	4278.320304	Steps:3 KeyPress:False Matched:False	1	3	false	false	Correct	true	n/a	n-backMarkers
198.071442	0.000000	3-back	4280.021372	Steps:3 KeyPress:False Matched:False	1	3	false	false	Correct	true	n/a	n-backMarkers
199.772623	0.000000	3-back	4281.722553	Steps:3 KeyPress:False Matched:False	1	3	false	false	Correct	true	n/a	n-backMarkers
201.473267	0.000000	3-back	4283.423197	Steps:3 KeyPress:False Matched:False	1	3	false	false	Correct	true	n/a	n-backMarkers
203.174944	0.000000	3-back	4285.124874	Steps:3 KeyPress:False Matched:False	1	3	false	false	Correct	true	n/a	n-backMarkers
204.875699	0.000000	3-back	4286.825629	Steps:3 KeyPress:False Matched:False	1	3	false	false	Correct	true	n/a	n-backMarkers
206.577288	0.000000	3-back	4288.527218	Steps:3 KeyPress:False Matched:False	1	3	false	false	Correct	true	n/a	n-backMarkers
208.278852	0.000000	3-back	4290.228782	Steps:3 KeyPress:False Matched:False	1	3	false	false	Correct	true	n/a	n-backMarkers
208.860107	0.012000	dropped_samples	4290.810037	Dropped 3 samples	n/a	n/a	n/a	n/a	n/a	n/a	3	UoHDataOffsetStream
209.979926	0.000000	3-back	4291.929856	Steps:3 KeyPress:True Matched:False	0	3	true	false	Wrong	true	n/a	n-backMarkers
211.681121	0.000000	3-back	4293.631051	Steps:3 KeyPress:False Matched:False	1	3	false	false	Correct	true	n/a	n-backMarkers
213.381665	0.000000	3-back	4295.331594	Steps:3 KeyPress:False Matched:False	1	3	false	false	Correct	true	n/a	n-backMarkers
213.947891	0.004000	dropped_samples	4295.897821	Dropped 1 samples	n/a	n/a	n/a	n/a	n/a	n/a	1	UoHDataOffsetStream
215.083154	0.000000	3-back	4297.033084	Steps:3 KeyPress:False Matched:False	1	3	false	false	Correct	true	n/a	n-backMarkers
216.783771	0.000000	3-back	4298.733700	Steps:3 KeyPress:True Matched:False	0	3	true	false	Wrong	true	n/a	n-backMarkers
218.459718	0.004000	dropped_samples	4300.409648	Dropped 1 samples	n/a	n/a	n/a	n/a	n/a	n/a	1	UoHDataOffsetStream
218.485282	0.000000	3-back	4300.435212	Steps:3 KeyPress:False Matched:True	0	3	false	true	Wrong	true	n/a	n-backMarkers
220.186323	0.000000	3-back	4302.136252	Steps:3 KeyPress:False Matched:False	1	3	false	false	Correct	true	n/a	n-backMarkers
221.433354	0.004000	dropped_samples	4303.383284	Dropped 1 samples	n/a	n/a	n/a	n/a	n/a	n/a	1	UoHDataOffsetStream
221.886949	0.000000	3-back	4303.836879	Steps:3 KeyPress:False Matched:False	1	3	false	false	Correct	true	n/a	n-backMarkers
223.588100	0.000000	3-back	4305.538029	Steps:3 KeyPress:False Matched:True	0	3	false	true	Wrong	true	n/a	n-backMarkers
225.289360	0.000000	3-back	4307.239290	Steps:3 KeyPress:False Matched:False	1	3	false	false	Correct	true	n/a	n-backMarkers
225.324869	0.004000	dropped_samples	4307.274799	Dropped 1 samples	n/a	n/a	n/a	n/a	n/a	n/a	1	UoHDataOffsetStream
226.989858	0.000000	3-back	4308.939787	Steps:3 KeyPress:False Matched:True	0	3	false	true	Wrong	true	n/a	n-backMarkers
230.124736	0.004000	dropped_samples	4312.074666	Dropped 1 samples	n/a	n/a	n/a	n/a	n/a	n/a	1	UoHDataOffsetStream
235.697106	0.000000	4-back	4317.647036	Steps:4 KeyPress:False Matched:False	1	4	false	false	Correct	true	n/a	n-backMarkers
237.397281	0.000000	4-back	4319.347211	Steps:4 KeyPress:False Matched:True	0	4	false	true	Wrong	true	n/a	n-backMarkers
239.098832	0.000000	4-back	4321.048762	Steps:4 KeyPress:False Matched:True	0	4	false	true	Wrong	true	n/a	n-backMarkers
240.800687	0.000000	4-back	4322.750617	Steps:4 KeyPress:False Matched:False	1	4	false	false	Correct	true	n/a	n-backMarkers
242.121782	0.004000	dropped_samples	4324.071712	Dropped 1 samples	n/a	n/a	n/a	n/a	n/a	n/a	1	UoHDataOffsetStream
242.502340	0.000000	4-back	4324.452269	Steps:4 KeyPress:False Matched:False	1	4	false	false	Correct	true	n/a	n-backMarkers
244.203616	0.000000	4-back	4326.153545	Steps:4 KeyPress:False Matched:False	1	4	false	false	Correct	true	n/a	n-backMarkers
245.904237	0.000000	4-back	4327.854167	Steps:4 KeyPress:False Matched:True	0	4	false	true	Wrong	true	n/a	n-backMarkers
246.057432	0.004000	dropped_samples	4328.007361	Dropped 1 samples	n/a	n/a	n/a	n/a	n/a	n/a	1	UoHDataOffsetStream
247.605976	0.000000	4-back	4329.555906	Steps:4 KeyPress:False Matched:False	1	4	false	false	Correct	true	n/a	n-backMarkers
247.644287	0.004000	dropped_samples	4329.594217	Dropped 1 samples	n/a	n/a	n/a	n/a	n/a	n/a	1	UoHDataOffsetStream
249.307158	0.000000	4-back	4331.257088	Steps:4 KeyPress:False Matched:False	1	4	false	false	Correct	true	n/a	n-backMarkers
251.008926	0.000000	4-back	4332.958856	Steps:4 KeyPress:False Matched:False	1	4	false	false	Correct	true	n/a	n-backMarkers
252.709069	0.000000	4-back	4334.658999	Steps:4 KeyPress:False Matched:False	1	4	false	false	Correct	true	n/a	n-backMarkers
254.410986	0.000000	4-back	4336.360915	Steps:4 KeyPress:False Matched:True	0	4	false	true	Wrong	true	n/a	n-backMarkers
256.112205	0.000000	4-back	4338.062135	Steps:4 KeyPress:False Matched:False	1	4	false	false	Correct	true	n/a	n-backMarkers
257.812922	0.000000	4-back	4339.762852	Steps:4 KeyPress:False Matched:False	1	4	false	false	Correct	true	n/a	n-backMarkers
257.912948	0.004000	dropped_samples	4339.862878	Dropped 1 samples	n/a	n/a	n/a	n/a	n/a	n/a	1	UoHDataOffsetStream
259.162869	0.004000	dropped_samples	4341.112799	Dropped 1 samples	n/a	n/a	n/a	n/a	n/a	n/a	1	UoHDataOffsetStream
259.514032	0.000000	4-back	4341.463962	Steps:4 KeyPress:False Matched:False	1	4	false	false	Correct	true	n/a	n-backMarkers
261.214901	0.000000	4-back	4343.164831	Steps:4 KeyPress:False Matched:True	0	4	false	true	Wrong	true	n/a	n-backMarkers
261.609291	0.004000	dropped_samples	4343.559220	Dropped 1 samples	n/a	n/a	n/a	n/a	n/a	n/a	1	UoHDataOffsetStream
262.916303	0.000000	4-back	4344.866233	Steps:4 KeyPress:False Matched:True	0	4	false	true	Wrong	true	n/a	n-backMarkers
264.153172	0.004000	dropped_samples	4346.103102	Dropped 1 samples	n/a	n/a	n/a	n/a	n/a	n/a	1	UoHDataOffsetStream
264.616856	0.000000	4-back	4346.566786	Steps:4 KeyPress:False Matched:True	0	4	false	true	Wrong	true	n/a	n-backMarkers
265.789653	0.004000	dropped_samples	4347.739583	Dropped 1 samples	n/a	n/a	n/a	n/a	n/a	n/a	1	UoHDataOffsetStream
266.169797	0.008000	dropped_samples	4348.119727	Dropped 2 samples	n/a	n/a	n/a	n/a	n/a	n/a	2	UoHDataOffsetStream
266.318884	0.000000	4-back	4348.268814	Steps:4 KeyPress:False Matched:False	1	4	false	false	Correct	true	n/a	n-backMarkers
267.610130	0.004000	dropped_samples	4349.560059	Dropped 1 samples	n/a	n/a	n/a	n/a	n/a	n/a	1	UoHDataOffsetStream
268.020088	0.000000	4-back	4349.970017	Steps:4 KeyPress:False Matched:False	1	4	false	false	Correct	true	n/a	n-backMarkers
268.724828	0.000000	finished_tutorial_n_back	4350.674758	Finished tutorial n-back	n/a	n/a	n/a	n/a	n/a	true	n/a	n-backMarkers
269.529115	0.004000	dropped_samples	4351.479045	Dropped 1 samples	n/a	n/a	n/a	n/a	n/a	n/a	1	UoHDataOffsetStream
272.897826	0.004000	dropped_samples	4354.847756	Dropped 1 samples	n/a	n/a	n/a	n/a	n/a	n/a	1	UoHDataOffsetStream
277.932444	0.004000	dropped_samples	4359.882373	Dropped 1 samples	n/a	n/a	n/a	n/a	n/a	n/a	1	UoHDataOffsetStream
282.585792	0.004000	dropped_samples	4364.535721	Dropped 1 samples	n/a	n/a	n/a	n/a	n/a	n/a	1	UoHDataOffsetStream
291.706933	0.004000	dropped_samples	4373.656863	Dropped 1 samples	n/a	n/a	n/a	n/a	n/a	n/a	1	UoHDataOffsetStream
292.668889	0.004000	dropped_samples	4374.618818	Dropped 1 samples	n/a	n/a	n/a	n/a	n/a	n/a	1	UoHDataOffsetStream
294.490101	0.004000	dropped_samples	4376.440031	Dropped 1 samples	n/a	n/a	n/a	n/a	n/a	n/a	1	UoHDataOffsetStream
295.549650	0.004000	dropped_samples	4377.499580	Dropped 1 samples	n/a	n/a	n/a	n/a	n/a	n/a	1	UoHDataOffsetStream
307.209801	0.004000	dropped_samples	4389.159731	Dropped 1 samples	n/a	n/a	n/a	n/a	n/a	n/a	1	UoHDataOffsetStream
314.651243	0.004000	dropped_samples	4396.601173	Dropped 1 samples	n/a	n/a	n/a	n/a	n/a	n/a	1	UoHDataOffsetStream
323.674736	0.004000	dropped_samples	4405.624665	Dropped 1 samples	n/a	n/a	n/a	n/a	n/a	n/a	1	UoHDataOffsetStream
326.164363	0.000000	started_n_back	4408.114292	Started n-back	n/a	n/a	n/a	n/a	n/a	false	n/a	n-backMarkers
327.278259	0.012000	dropped_samples	4409.228189	Dropped 3 samples	n/a	n/a	n/a	n/a	n/a	n/a	3	UoHDataOffsetStream
328.235238	0.004000	dropped_samples	4410.185168	Dropped 1 samples	n/a	n/a	n/a	n/a	n/a	n/a	1	UoHDataOffsetStream
329.387604	0.004000	dropped_samples	4411.337533	Dropped 1 samples	n/a	n/a	n/a	n/a	n/a	n/a	1	UoHDataOffsetStream
331.833985	0.004000	dropped_samples	4413.783915	Dropped 1 samples	n/a	n/a	n/a	n/a	n/a	n/a	1	UoHDataOffsetStream
333.562463	0.004000	dropped_samples	4415.512393	Dropped 1 samples	n/a	n/a	n/a	n/a	n/a	n/a	1	UoHDataOffsetStream
333.899340	0.004000	dropped_samples	4415.849270	Dropped 1 samples	n/a	n/a	n/a	n/a	n/a	n/a	1	UoHDataOffsetStream
334.166442	0.000000	1-back	4416.116372	Steps:1 KeyPress:False Matched:False	1	1	false	false	Correct	false	n/a	n-backMarkers
335.867286	0.000000	1-back	4417.817216	Steps:1 KeyPress:False Matched:False	1	1	false	false	Correct	false	n/a	n-backMarkers
337.568350	0.000000	1-back	4419.518280	Steps:1 KeyPress:True Matched:False	0	1	true	false	Wrong	false	n/a	n-backMarkers
337.595600	0.004000	dropped_samples	4419.545530	Dropped 1 samples	n/a	n/a	n/a	n/a	n/a	n/a	1	UoHDataOffsetStream
339.269396	0.000000	1-back	4421.219326	Steps:1 KeyPress:False Matched:False	1	1	false	false	Correct	false	n/a	n-backMarkers
340.969694	0.000000	1-back	4422.919624	Steps:1 KeyPress:True Matched:False	0	1	true	false	Wrong	false	n/a	n-backMarkers
342.670889	0.000000	1-back	4424.620819	Steps:1 KeyPress:False Matched:True	0	1	false	true	Wrong	false	n/a	n-backMarkers
343.118136	0.012000	dropped_samples	4425.068066	Dropped 3 samples	n/a	n/a	n/a	n/a	n/a	n/a	3	UoHDataOffsetStream
344.371566	0.000000	1-back	4426.321495	Steps:1 KeyPress:False Matched:False	1	1	false	false	Correct	false	n/a	n-backMarkers
344.412081	0.012000	dropped_samples	4426.362011	Dropped 3 samples	n/a	n/a	n/a	n/a	n/a	n/a	3	UoHDataOffsetStream
346.072345	0.000000	1-back	4428.022275	Steps:1 KeyPress:True Matched:False	0	1	true	false	Wrong	false	n/a	n-backMarkers
347.773026	0.000000	1-back	4429.722955	Steps:1 KeyPress:False Matched:False	1	1	false	false	Correct	false	n/a	n-backMarkers
349.474397	0.000000	1-back	4431.424326	Steps:1 KeyPress:True Matched:False	0	1	true	false	Wrong	false	n/a	n-backMarkers
350.761448	0.012000	dropped_samples	4432.711378	Dropped 3 samples	n/a	n/a	n/a	n/a	n/a	n/a	3	UoHDataOffsetStream
351.176427	0.000000	1-back	4433.126357	Steps:1 KeyPress:False Matched:False	1	1	false	false	Correct	false	n/a	n-backMarkers
352.878490	0.000000	1-back	4434.828419	Steps:1 KeyPress:True Matched:False	0	1	true	false	Wrong	false	n/a	n-backMarkers
354.579408	0.000000	1-back	4436.529338	Steps:1 KeyPress:False Matched:True	0	1	false	true	Wrong	false	n/a	n-backMarkers
354.827181	0.012000	dropped_samples	4436.777111	Dropped 3 samples	n/a	n/a	n/a	n/a	n/a	n/a	3	UoHDataOffsetStream
356.280563	0.000000	1-back	4438.230493	Steps:1 KeyPress:True Matched:True	1	1	true	true	Correct	false	n/a	n-backMarkers
357.982451	0.000000	1-back	4439.932380	Steps:1 KeyPress:False Matched:False	1	1	false	false	Correct	false	n/a	n-backMarkers
359.683224	0.000000	1-back	4441.633154	Steps:1 KeyPress:True Matched:False	0	1	true	false	Wrong	false	n/a	n-backMarkers
361.383430	0.000000	1-back	4443.333359	Steps:1 KeyPress:False Matched:False	1	1	false	false	Correct	false	n/a	n-backMarkers
363.083872	0.000000	1-back	4445.033802	Steps:1 KeyPress:False Matched:False	1	1	false	false	Correct	false	n/a	n-backMarkers
364.785526	0.000000	1-back	4446.735455	Steps:1 KeyPress:True Matched:False	0	1	true	false	Wrong	false	n/a	n-backMarkers
366.487307	0.000000	1-back	4448.437237	Steps:1 KeyPress:False Matched:True	0	1	false	true	Wrong	false	n/a	n-backMarkers
368.188665	0.000000	1-back	4450.138595	Steps:1 KeyPress:False Matched:False	1	1	false	false	Correct	false	n/a	n-backMarkers
369.889445	0.000000	1-back	4451.839375	Steps:1 KeyPress:True Matched:False	0	1	true	false	Wrong	false	n/a	n-backMarkers
371.591353	0.000000	1-back	4453.541282	Steps:1 KeyPress:False Matched:True	0	1	false	true	Wrong	false	n/a	n-backMarkers
371.868202	0.004000	dropped_samples	4453.818132	Dropped 1 samples	n/a	n/a	n/a	n/a	n/a	n/a	1	UoHDataOffsetStream
372.493291	0.004000	dropped_samples	4454.443220	Dropped 1 samples	n/a	n/a	n/a	n/a	n/a	n/a	1	UoHDataOffsetStream
373.292679	0.000000	1-back	4455.242608	Steps:1 KeyPress:False Matched:True	0	1	false	true	Wrong	false	n/a	n-backMarkers
374.994325	0.000000	1-back	4456.944255	Steps:1 KeyPress:False Matched:False	1	1	false	false	Correct	false	n/a	n-backMarkers
376.695288	0.000000	1-back	4458.645218	Steps:1 KeyPress:False Matched:False	1	1	false	false	Correct	false	n/a	n-backMarkers
378.395450	0.000000	1-back	4460.345379	Steps:1 KeyPress:True Matched:False	0	1	true	false	Wrong	false	n/a	n-backMarkers
380.095989	0.000000	1-back	4462.045919	Steps:1 KeyPress:False Matched:False	1	1	false	false	Correct	false	n/a	n-backMarkers
381.796552	0.000000	1-back	4463.746482	Steps:1 KeyPress:True Matched:False	0	1	true	false	Wrong	false	n/a	n-backMarkers
383.497866	0.000000	1-back	4465.447796	Steps:1 KeyPress:True Matched:True	1	1	true	true	Correct	false	n/a	n-backMarkers
385.199554	0.000000	1-back	4467.149484	Steps:1 KeyPress:False Matched:True	0	1	false	true	Wrong	false	n/a	n-backMarkers
385.598527	0.004000	dropped_samples	4467.548457	Dropped 1 samples	n/a	n/a	n/a	n/a	n/a	n/a	1	UoHDataOffsetStream
386.900369	0.000000	1-back	4468.850298	Steps:1 KeyPress:False Matched:True	0	1	false	true	Wrong	false	n/a	n-backMarkers
388.601875	0.000000	1-back	4470.551805	Steps:1 KeyPress:False Matched:False	1	1	false	false	Correct	false	n/a	n-backMarkers
389.871163	0.004000	dropped_samples	4471.821093	Dropped 1 samples	n/a	n/a	n/a	n/a	n/a	n/a	1	UoHDataOffsetStream
390.302695	0.000000	1-back	4472.252625	Steps:1 KeyPress:False Matched:False	1	1	false	false	Correct	false	n/a	n-backMarkers
390.925968	0.004000	dropped_samples	4472.875897	Dropped 1 samples	n/a	n/a	n/a	n/a	n/a	n/a	1	UoHDataOffsetStream
392.003801	0.000000	1-back	4473.953731	Steps:1 KeyPress:True Matched:False	0	1	true	false	Wrong	false	n/a	n-backMarkers
393.705837	0.000000	1-back	4475.655767	Steps:1 KeyPress:False Matched:False	1	1	false	false	Correct	false	n/a	n-backMarkers
395.406997	0.000000	1-back	4477.356926	Steps:1 KeyPress:True Matched:False	0	1	true	false	Wrong	false	n/a	n-backMarkers
397.107361	0.000000	1-back	4479.057291	Steps:1 KeyPress:False Matched:True	0	1	false	true	Wrong	false	n/a	n-backMarkers
398.807943	0.000000	1-back	4480.757873	Steps:1 KeyPress:False Matched:True	0	1	false	true	Wrong	false	n/a	n-backMarkers
400.508226	0.000000	1-back	4482.458156	Steps:1 KeyPress:False Matched:False	1	1	false	false	Correct	false	n/a	n-backMarkers
402.209133	0.000000	1-back	4484.159062	Steps:1 KeyPress:False Matched:False	1	1	false	false	Correct	false	n/a	n-backMarkers
403.910171	0.000000	1-back	4485.860101	Steps:1 KeyPress:True Matched:False	0	1	true	false	Wrong	false	n/a	n-backMarkers
405.611213	0.000000	1-back	4487.561143	Steps:1 KeyPress:False Matched:False	1	1	false	false	Correct	false	n/a	n-backMarkers
407.312767	0.000000	1-back	4489.262697	Steps:1 KeyPress:True Matched:False	0	1	true	false	Wrong	false	n/a	n-backMarkers
407.532351	0.004000	dropped_samples	4489.482281	Dropped 1 samples	n/a	n/a	n/a	n/a	n/a	n/a	1	UoHDataOffsetStream
409.014597	0.000000	1-back	4490.964527	Steps:1 KeyPress:False Matched:True	0	1	false	true	Wrong	false	n/a	n-backMarkers
410.715280	0.000000	1-back	4492.665210	Steps:1 KeyPress:False Matched:True	0	1	false	true	Wrong	false	n/a	n-backMarkers
411.565579	0.004000	dropped_samples	4493.515508	Dropped 1 samples	n/a	n/a	n/a	n/a	n/a	n/a	1	UoHDataOffsetStream
412.416387	0.000000	1-back	4494.366317	Steps:1 KeyPress:False Matched:False	1	1	false	false	Correct	false	n/a	n-backMarkers
414.117027	0.000000	1-back	4496.066957	Steps:1 KeyPress:True Matched:False	0	1	true	false	Wrong	false	n/a	n-backMarkers
415.818042	0.000000	1-back	4497.767972	Steps:1 KeyPress:False Matched:True	0	1	false	true	Wrong	false	n/a	n-backMarkers
417.518100	0.000000	1-back	4499.468029	Steps:1 KeyPress:False Matched:True	0	1	false	true	Wrong	false	n/a	n-backMarkers
419.219233	0.000000	1-back	4501.169163	Steps:1 KeyPress:False Matched:False	1	1	false	false	Correct	false	n/a	n-backMarkers
420.920480	0.000000	1-back	4502.870410	Steps:1 KeyPress:True Matched:False	0	1	true	false	Wrong	false	n/a	n-backMarkers
422.621457	0.000000	1-back	4504.571386	Steps:1 KeyPress:False Matched:False	1	1	false	false	Correct	false	n/a	n-backMarkers
423.948655	0.004000	dropped_samples	4505.898585	Dropped 1 samples	n/a	n/a	n/a	n/a	n/a	n/a	1	UoHDataOffsetStream
424.322267	0.000000	1-back	4506.272197	Steps:1 KeyPress:True Matched:False	0	1	true	false	Wrong	false	n/a	n-backMarkers
424.524589	0.012000	dropped_samples	4506.474519	Dropped 3 samples	n/a	n/a	n/a	n/a	n/a	n/a	3	UoHDataOffsetStream
426.022545	0.000000	1-back	4507.972475	Steps:1 KeyPress:False Matched:True	0	1	false	true	Wrong	false	n/a	n-backMarkers
427.722731	0.000000	1-back	4509.672660	Steps:1 KeyPress:False Matched:False	1	1	false	false	Correct	false	n/a	n-backMarkers
428.460122	0.004000	dropped_samples	4510.410052	Dropped 1 samples	n/a	n/a	n/a	n/a	n/a	n/a	1	UoHDataOffsetStream
429.424165	0.000000	1-back	4511.374095	Steps:1 KeyPress:True Matched:False	0	1	true	false	Wrong	false	n/a	n-backMarkers
431.124647	0.000000	1-back	4513.074577	Steps:1 KeyPress:False Matched:False	1	1	false	false	Correct	false	n/a	n-backMarkers
432.825375	0.000000	1-back	4514.775304	Steps:1 KeyPress:True Matched:False	0	1	true	false	Wrong	false	n/a	n-backMarkers
434.526315	0.000000	1-back	4516.476245	Steps:1 KeyPress:False Matched:True	0	1	false	true	Wrong	false	n/a	n-backMarkers
434.798079	0.004000	dropped_samples	4516.748009	Dropped 1 samples	n/a	n/a	n/a	n/a	n/a	n/a	1	UoHDataOffsetStream
435.852802	0.012000	dropped_samples	4517.802732	Dropped 3 samples	n/a	n/a	n/a	n/a	n/a	n/a	3	UoHDataOffsetStream
436.228249	0.000000	1-back	4518.178179	Steps:1 KeyPress:False Matched:False	1	1	false	false	Correct	false	n/a	n-backMarkers
437.929582	0.000000	1-back	4519.879512	Steps:1 KeyPress:True Matched:False	0	1	true	false	Wrong	false	n/a	n-backMarkers
439.630629	0.000000	1-back	4521.580559	Steps:1 KeyPress:False Matched:False	1	1	false	false	Correct	false	n/a	n-backMarkers
441.331413	0.000000	1-back	4523.281343	Steps:1 KeyPress:True Matched:False	0	1	true	false	Wrong	false	n/a	n-backMarkers
441.614561	0.004000	dropped_samples	4523.564491	Dropped 1 samples	n/a	n/a	n/a	n/a	n/a	n/a	1	UoHDataOffsetStream
443.033174	0.000000	1-back	4524.983104	Steps:1 KeyPress:False Matched:True	0	1	false	true	Wrong	false	n/a	n-backMarkers
444.060810	0.012000	dropped_samples	4526.010740	Dropped 3 samples	n/a	n/a	n/a	n/a	n/a	n/a	3	UoHDataOffsetStream
444.733320	0.000000	1-back	4526.683250	Steps:1 KeyPress:False Matched:False	1	1	false	false	Correct	false	n/a	n-backMarkers
446.435241	0.000000	1-back	4528.385171	Steps:1 KeyPress:True Matched:False	0	1	true	false	Wrong	false	n/a	n-backMarkers
448.135609	0.000000	1-back	4530.085538	Steps:1 KeyPress:False Matched:False	1	1	false	false	Correct	false	n/a	n-backMarkers
449.836252	0.000000	1-back	4531.786182	Steps:1 KeyPress:True Matched:False	0	1	true	false	Wrong	false	n/a	n-backMarkers
450.637894	0.004000	dropped_samples	4532.587824	Dropped 1 samples	n/a	n/a	n/a	n/a	n/a	n/a	1	UoHDataOffsetStream
451.537752	0.000000	1-back	4533.487682	Steps:1 KeyPress:True Matched:False	0	1	true	false	Wrong	false	n/a	n-backMarkers
453.239079	0.000000	1-back	4535.189009	Steps:1 KeyPress:True Matched:False	0	1	true	false	Wrong	false	n/a	n-backMarkers
454.940491	0.000000	1-back	4536.890421	Steps:1 KeyPress:False Matched:True	0	1	false	true	Wrong	false	n/a	n-backMarkers
456.642067	0.000000	1-back	4538.591997	Steps:1 KeyPress:False Matched:False	1	1	false	false	Correct	false	n/a	n-backMarkers
458.318484	0.004000	dropped_samples	4540.268414	Dropped 1 samples	n/a	n/a	n/a	n/a	n/a	n/a	1	UoHDataOffsetStream
458.342633	0.000000	1-back	4540.292563	Steps:1 KeyPress:True Matched:False	0	1	true	false	Wrong	false	n/a	n-backMarkers
459.182788	0.004000	dropped_samples	4541.132717	Dropped 1 samples	n/a	n/a	n/a	n/a	n/a	n/a	1	UoHDataOffsetStream
459.949454	0.012000	dropped_samples	4541.899384	Dropped 3 samples	n/a	n/a	n/a	n/a	n/a	n/a	3	UoHDataOffsetStream
460.042732	0.000000	1-back	4541.992662	Steps:1 KeyPress:False Matched:False	1	1	false	false	Correct	false	n/a	n-backMarkers
461.743332	0.000000	1-back	4543.693262	Steps:1 KeyPress:True Matched:False	0	1	true	false	Wrong	false	n/a	n-backMarkers
463.444563	0.000000	1-back	4545.394493	Steps:1 KeyPress:False Matched:False	1	1	false	false	Correct	false	n/a	n-backMarkers
465.145535	0.000000	1-back	4547.095464	Steps:1 KeyPress:True Matched:False	0	1	true	false	Wrong	false	n/a	n-backMarkers
465.759982	0.004000	dropped_samples	4547.709912	Dropped 1 samples	n/a	n/a	n/a	n/a	n/a	n/a	1	UoHDataOffsetStream
466.846441	0.000000	1-back	4548.796371	Steps:1 KeyPress:False Matched:False	1	1	false	false	Correct	false	n/a	n-backMarkers
468.547324	0.000000	1-back	4550.497254	Steps:1 KeyPress:True Matched:False	0	1	true	false	Wrong	false	n/a	n-backMarkers
470.249106	0.000000	1-back	4552.199036	Steps:1 KeyPress:False Matched:True	0	1	false	true	Wrong	false	n/a	n-backMarkers
470.989507	0.012000	dropped_samples	4552.939437	Dropped 3 samples	n/a	n/a	n/a	n/a	n/a	n/a	3	UoHDataOffsetStream
471.949542	0.000000	1-back	4553.899471	Steps:1 KeyPress:False Matched:False	1	1	false	false	Correct	false	n/a	n-backMarkers
472.044230	0.004000	dropped_samples	4553.994160	Dropped 1 samples	n/a	n/a	n/a	n/a	n/a	n/a	1	UoHDataOffsetStream
472.766830	0.004000	dropped_samples	4554.716760	Dropped 1 samples	n/a	n/a	n/a	n/a	n/a	n/a	1	UoHDataOffsetStream
473.631084	0.004000	dropped_samples	4555.581014	Dropped 1 samples	n/a	n/a	n/a	n/a	n/a	n/a	1	UoHDataOffsetStream
473.651514	0.000000	1-back	4555.601443	Steps:1 KeyPress:True Matched:False	0	1	true	false	Wrong	false	n/a	n-backMarkers
475.352336	0.000000	1-back	4557.302266	Steps:1 KeyPress:False Matched:True	0	1	false	true	Wrong	false	n/a	n-backMarkers
477.053246	0.000000	1-back	4559.003176	Steps:1 KeyPress:False Matched:True	0	1	false	true	Wrong	false	n/a	n-backMarkers
477.708263	0.012000	dropped_samples	4559.658193	Dropped 3 samples	n/a	n/a	n/a	n/a	n/a	n/a	3	UoHDataOffsetStream
478.754860	0.000000	1-back	4560.704789	Steps:1 KeyPress:False Matched:False	1	1	false	false	Correct	false	n/a	n-backMarkers
480.455441	0.000000	1-back	4562.405371	Steps:1 KeyPress:False Matched:False	1	1	false	false	Correct	false	n/a	n-backMarkers
482.156351	0.000000	1-back	4564.106281	Steps:1 KeyPress:False Matched:False	1	1	false	false	Correct	false	n/a	n-backMarkers
482.654605	0.012000	dropped_samples	4564.604535	Dropped 3 samples	n/a	n/a	n/a	n/a	n/a	n/a	3	UoHDataOffsetStream
483.857349	0.000000	1-back	4565.807279	Steps:1 KeyPress:False Matched:False	1	1	false	false	Correct	false	n/a	n-backMarkers
485.008128	0.004000	dropped_samples	4566.958058	Dropped 1 samples	n/a	n/a	n/a	n/a	n/a	n/a	1	UoHDataOffsetStream
485.557602	0.000000	1-back	4567.507532	Steps:1 KeyPress:False Matched:False	1	1	false	false	Correct	false	n/a	n-backMarkers
487.258103	0.000000	1-back	4569.208033	Steps:1 KeyPress:False Matched:False	1	1	false	false	Correct	false	n/a	n-backMarkers
487.263960	0.008000	dropped_samples	4569.213890	Dropped 2 samples	n/a	n/a	n/a	n/a	n/a	n/a	2	UoHDataOffsetStream
488.959299	0.000000	1-back	4570.909229	Steps:1 KeyPress:True Matched:False	0	1	true	false	Wrong	false	n/a	n-backMarkers
490.660306	0.000000	1-back	4572.610236	Steps:1 KeyPress:False Matched:True	0	1	false	true	Wrong	false	n/a	n-backMarkers
492.360492	0.000000	1-back	4574.310422	Steps:1 KeyPress:False Matched:False	1	1	false	false	Correct	false	n/a	n-backMarkers
492.683952	0.012000	dropped_samples	4574.633882	Dropped 3 samples	n/a	n/a	n/a	n/a	n/a	n/a	3	UoHDataOffsetStream
494.062296	0.000000	1-back	4576.012226	Steps:1 KeyPress:True Matched:False	0	1	true	false	Wrong	false	n/a	n-backMarkers
494.700547	0.004000	dropped_samples	4576.650477	Dropped 1 samples	n/a	n/a	n/a	n/a	n/a	n/a	1	UoHDataOffsetStream
495.763212	0.000000	1-back	4577.713141	Steps:1 KeyPress:False Matched:False	1	1	false	false	Correct	false	n/a	n-backMarkers
496.668320	0.004000	dropped_samples	4578.618250	Dropped 1 samples	n/a	n/a	n/a	n/a	n/a	n/a	1	UoHDataOffsetStream
497.464162	0.000000	1-back	4579.414091	Steps:1 KeyPress:True Matched:False	0	1	true	false	Wrong	false	n/a	n-backMarkers
498.636157	0.012000	dropped_samples	4580.586086	Dropped 3 samples	n/a	n/a	n/a	n/a	n/a	n/a	3	UoHDataOffsetStream
499.165431	0.000000	1-back	4581.115361	Steps:1 KeyPress:False Matched:True	0	1	false	true	Wrong	false	n/a	n-backMarkers
500.559926	0.012000	dropped_samples	4582.509856	Dropped 3 samples	n/a	n/a	n/a	n/a	n/a	n/a	3	UoHDataOffsetStream
500.867477	0.000000	1-back	4582.817407	Steps:1 KeyPress:False Matched:True	0	1	false	true	Wrong	false	n/a	n-backMarkers
501.087262	0.012000	dropped_samples	4583.037191	Dropped 3 samples	n/a	n/a	n/a	n/a	n/a	n/a	3	UoHDataOffsetStream
502.288425	0.004000	dropped_samples	4584.238355	Dropped 1 samples	n/a	n/a	n/a	n/a	n/a	n/a	1	UoHDataOffsetStream
502.568135	0.000000	1-back	4584.518065	Steps:1 KeyPress:False Matched:False	1	1	false	false	Correct	false	n/a	n-backMarkers
505.164371	0.012000	dropped_samples	4587.114300	Dropped 3 samples	n/a	n/a	n/a	n/a	n/a	n/a	3	UoHDataOffsetStream
505.984732	0.012000	dropped_samples	4587.934662	Dropped 3 samples	n/a	n/a	n/a	n/a	n/a	n/a	3	UoHDataOffsetStream
509.871457	0.004000	dropped_samples	4591.821387	Dropped 1 samples	n/a	n/a	n/a	n/a	n/a	n/a	1	UoHDataOffsetStream
511.283780	0.000000	2-back	4593.233710	Steps:2 KeyPress:False Matched:False	1	2	false	false	Correct	false	n/a	n-backMarkers
512.985357	0.000000	2-back	4594.935287	Steps:2 KeyPress:False Matched:False	1	2	false	false	Correct	false	n/a	n-backMarkers
514.686197	0.000000	2-back	4596.636127	Steps:2 KeyPress:False Matched:False	1	2	false	false	Correct	false	n/a	n-backMarkers
516.387241	0.000000	2-back	4598.337171	Steps:2 KeyPress:False Matched:False	1	2	false	false	Correct	false	n/a	n-backMarkers
518.090441	0.000000	2-back	4600.040371	Steps:2 KeyPress:True Matched:False	0	2	true	false	Wrong	false	n/a	n-backMarkers
519.792186	0.000000	2-back	4601.742116	Steps:2 KeyPress:False Matched:False	1	2	false	false	Correct	false	n/a	n-backMarkers
521.493338	0.000000	2-back	4603.443268	Steps:2 KeyPress:False Matched:False	1	2	false	false	Correct	false	n/a	n-backMarkers
522.063926	0.004000	dropped_samples	4604.013856	Dropped 1 samples	n/a	n/a	n/a	n/a	n/a	n/a	1	UoHDataOffsetStream
523.193973	0.000000	2-back	4605.143902	Steps:2 KeyPress:True Matched:False	0	2	true	false	Wrong	false	n/a	n-backMarkers
524.895226	0.000000	2-back	4606.845156	Steps:2 KeyPress:False Matched:True	0	2	false	true	Wrong	false	n/a	n-backMarkers
525.183980	0.012000	dropped_samples	4607.133910	Dropped 3 samples	n/a	n/a	n/a	n/a	n/a	n/a	3	UoHDataOffsetStream
526.597513	0.000000	2-back	4608.547443	Steps:2 KeyPress:True Matched:False	0	2	true	false	Wrong	false	n/a	n-backMarkers
528.298037	0.000000	2-back	4610.247966	Steps:2 KeyPress:False Matched:False	1	2	false	false	Correct	false	n/a	n-backMarkers
529.998107	0.000000	2-back	4611.948037	Steps:2 KeyPress:False Matched:False	1	2	false	false	Correct	false	n/a	n-backMarkers
531.699133	0.000000	2-back	4613.649062	Steps:2 KeyPress:True Matched:False	0	2	true	false	Wrong	false	n/a	n-backMarkers
533.392037	0.012000	dropped_samples	4615.341967	Dropped 3 samples	n/a	n/a	n/a	n/a	n/a	n/a	3	UoHDataOffsetStream
533.400849	0.000000	2-back	4615.350778	Steps:2 KeyPress:False Matched:True	0	2	false	true	Wrong	false	n/a	n-backMarkers
534.158645	0.012000	dropped_samples	4616.108575	Dropped 3 samples	n/a	n/a	n/a	n/a	n/a	n/a	3	UoHDataOffsetStream
534.446660	0.012000	dropped_samples	4616.396590	Dropped 3 samples	n/a	n/a	n/a	n/a	n/a	n/a	3	UoHDataOffsetStream
535.101628	0.000000	2-back	4617.051558	Steps:2 KeyPress:False Matched:False	1	2	false	false	Correct	false	n/a	n-backMarkers
536.802755	0.000000	2-back	4618.752685	Steps:2 KeyPress:False Matched:True	0	2	false	true	Wrong	false	n/a	n-backMarkers
537.806079	0.004000	dropped_samples	4619.756009	Dropped 1 samples	n/a	n/a	n/a	n/a	n/a	n/a	1	UoHDataOffsetStream
538.503189	0.000000	2-back	4620.453119	Steps:2 KeyPress:False Matched:False	1	2	false	false	Correct	false	n/a	n-backMarkers
540.205109	0.000000	2-back	4622.155039	Steps:2 KeyPress:False Matched:False	1	2	false	false	Correct	false	n/a	n-backMarkers
541.905319	0.000000	2-back	4623.855248	Steps:2 KeyPress:False Matched:False	1	2	false	false	Correct	false	n/a	n-backMarkers
543.606125	0.000000	2-back	4625.556055	Steps:2 KeyPress:False Matched:False	1	2	false	false	Correct	false	n/a	n-backMarkers
545.308054	0.000000	2-back	4627.257984	Steps:2 KeyPress:False Matched:False	1	2	false	false	Correct	false	n/a	n-backMarkers
545.965283	0.012000	dropped_samples	4627.915213	Dropped 3 samples	n/a	n/a	n/a	n/a	n/a	n/a	3	UoHDataOffsetStream
546.927238	0.004000	dropped_samples	4628.877168	Dropped 1 samples	n/a	n/a	n/a	n/a	n/a	n/a	1	UoHDataOffsetStream
547.009049	0.000000	2-back	4628.958979	Steps:2 KeyPress:False Matched:False	1	2	false	false	Correct	false	n/a	n-backMarkers
548.709239	0.000000	2-back	4630.659169	Steps:2 KeyPress:False Matched:False	1	2	false	false	Correct	false	n/a	n-backMarkers
548.894966	0.012000	dropped_samples	4630.844895	Dropped 3 samples	n/a	n/a	n/a	n/a	n/a	n/a	3	UoHDataOffsetStream
549.520079	0.012000	dropped_samples	4631.470009	Dropped 3 samples	n/a	n/a	n/a	n/a	n/a	n/a	3	UoHDataOffsetStream
550.410213	0.000000	2-back	4632.360142	Steps:2 KeyPress:False Matched:False	1	2	false	false	Correct	false	n/a	n-backMarkers
552.111077	0.000000	2-back	4634.061006	Steps:2 KeyPress:False Matched:False	1	2	false	false	Correct	false	n/a	n-backMarkers
552.928217	0.012000	dropped_samples	4634.878147	Dropped 3 samples	n/a	n/a	n/a	n/a	n/a	n/a	3	UoHDataOffsetStream
553.812193	0.000000	2-back	4635.762123	Steps:2 KeyPress:True Matched:False	0	2	true	false	Wrong	false	n/a	n-backMarkers
555.513343	0.000000	2-back	4637.463273	Steps:2 KeyPress:False Matched:False	1	2	false	false	Correct	false	n/a	n-backMarkers
557.214097	0.000000	2-back	4639.164027	Steps:2 KeyPress:False Matched:False	1	2	false	false	Correct	false	n/a	n-backMarkers
558.915026	0.000000	2-back	4640.864956	Steps:2 KeyPress:True Matched:False	0	2	true	false	Wrong	false	n/a	n-backMarkers
559.358845	0.012000	dropped_samples	4641.308774	Dropped 3 samples	n/a	n/a	n/a	n/a	n/a	n/a	3	UoHDataOffsetStream
560.616102	0.000000	2-back	4642.566032	Steps:2 KeyPress:False Matched:False	1	2	false	false	Correct	false	n/a	n-backMarkers
562.316194	0.000000	2-back	4644.266124	Steps:2 KeyPress:False Matched:False	1	2	false	false	Correct	false	n/a	n-backMarkers
563.729072	0.012000	dropped_samples	4645.679002	Dropped 3 samples	n/a	n/a	n/a	n/a	n/a	n/a	3	UoHDataOffsetStream
564.017183	0.000000	2-back	4645.967113	Steps:2 KeyPress:True Matched:False	0	2	true	false	Wrong	false	n/a	n-backMarkers
565.717237	0.000000	2-back	4647.667167	Steps:2 KeyPress:False Matched:True	0	2	false	true	Wrong	false	n/a	n-backMarkers
567.418074	0.000000	2-back	4649.368004	Steps:2 KeyPress:False Matched:False	1	2	false	false	Correct	false	n/a	n-backMarkers
568.143097	0.012000	dropped_samples	4650.093027	Dropped 3 samples	n/a	n/a	n/a	n/a	n/a	n/a	3	UoHDataOffsetStream
568.382315	0.004000	dropped_samples	4650.332245	Dropped 1 samples	n/a	n/a	n/a	n/a	n/a	n/a	1	UoHDataOffsetStream
569.056228	0.008000	dropped_samples	4651.006158	Dropped 2 samples	n/a	n/a	n/a	n/a	n/a	n/a	2	UoHDataOffsetStream
569.118897	0.000000	2-back	4651.068827	Steps:2 KeyPress:False Matched:True	0	2	false	true	Wrong	false	n/a	n-backMarkers
570.820062	0.000000	2-back	4652.769991	Steps:2 KeyPress:False Matched:False	1	2	false	false	Correct	false	n/a	n-backMarkers
572.317888	0.004000	dropped_samples	4654.267818	Dropped 1 samples	n/a	n/a	n/a	n/a	n/a	n/a	1	UoHDataOffsetStream
572.520124	0.000000	2-back	4654.470054	Steps:2 KeyPress:False Matched:False	1	2	false	false	Correct	false	n/a	n-backMarkers
574.221196	0.000000	2-back	4656.171126	Steps:2 KeyPress:False Matched:True	0	2	false	true	Wrong	false	n/a	n-backMarkers
575.008358	0.012000	dropped_samples	4656.958288	Dropped 3 samples	n/a	n/a	n/a	n/a	n/a	n/a	3	UoHDataOffsetStream
575.921939	0.000000	2-back	4657.871869	Steps:2 KeyPress:False Matched:False	1	2	false	false	Correct	false	n/a	n-backMarkers
577.622986	0.000000	2-back	4659.572916	Steps:2 KeyPress:True Matched:False	0	2	true	false	Wrong	false	n/a	n-backMarkers
579.323915	0.000000	2-back	4661.273844	Steps:2 KeyPress:False Matched:False	1	2	false	false	Correct	false	n/a	n-backMarkers
581.025981	0.000000	2-back	4662.975911	Steps:2 KeyPress:False Matched:True	0	2	false	true	Wrong	false	n/a	n-backMarkers
582.726926	0.000000	2-back	4664.676856	Steps:2 KeyPress:False Matched:False	1	2	false	false	Correct	false	n/a	n-backMarkers
584.428991	0.000000	2-back	4666.378921	Steps:2 KeyPress:False Matched:False	1	2	false	false	Correct	false	n/a	n-backMarkers
586.129546	0.000000	2-back	4668.079476	Steps:2 KeyPress:True Matched:False	0	2	true	false	Wrong	false	n/a	n-backMarkers
586.766231	0.004000	dropped_samples	4668.716161	Dropped 1 samples	n/a	n/a	n/a	n/a	n/a	n/a	1	UoHDataOffsetStream
587.829975	0.000000	2-back	4669.779905	Steps:2 KeyPress:False Matched:False	1	2	false	false	Correct	false	n/a	n-backMarkers
589.530098	0.000000	2-back	4671.480028	Steps:2 KeyPress:False Matched:False	1	2	false	false	Correct	false	n/a	n-backMarkers
591.230923	0.000000	2-back	4673.180852	Steps:2 KeyPress:True Matched:False	0	2	true	false	Wrong	false	n/a	n-backMarkers
592.931514	0.000000	2-back	4674.881444	Steps:2 KeyPress:True Matched:True	1	2	true	true	Correct	false	n/a	n-backMarkers
593.821808	0.004000	dropped_samples	4675.771737	Dropped 1 samples	n/a	n/a	n/a	n/a	n/a	n/a	1	UoHDataOffsetStream
594.632893	0.000000	2-back	4676.582823	Steps:2 KeyPress:False Matched:False	1	2	false	false	Correct	false	n/a	n-backMarkers
596.334048	0.000000	2-back	4678.283978	Steps:2 KeyPress:True Matched:True	1	2	true	true	Correct	false	n/a	n-backMarkers
598.034934	0.000000	2-back	4679.984864	Steps:2 KeyPress:False Matched:True	0	2	false	true	Wrong	false	n/a	n-backMarkers
599.735947	0.000000	2-back	4681.685877	Steps:2 KeyPress:True Matched:False	0	2	true	false	Wrong	false	n/a	n-backMarkers
601.437266	0.000000	2-back	4683.387196	Steps:2 KeyPress:False Matched:False	1	2	false	false	Correct	false	n/a	n-backMarkers
602.029857	0.004000	dropped_samples	4683.979787	Dropped 1 samples	n/a	n/a	n/a	n/a	n/a	n/a	1	UoHDataOffsetStream
603.138057	0.000000	2-back	4685.087987	Steps:2 KeyPress:False Matched:False	1	2	false	false	Correct	false	n/a	n-backMarkers
604.839013	0.000000	2-back	4686.788943	Steps:2 KeyPress:True Matched:False	0	2	true	false	Wrong	false	n/a	n-backMarkers
605.438080	0.004000	dropped_samples	4687.388010	Dropped 1 samples	n/a	n/a	n/a	n/a	n/a	n/a	1	UoHDataOffsetStream
606.540068	0.000000	2-back	4688.489997	Steps:2 KeyPress:False Matched:True	0	2	false	true	Wrong	false	n/a	n-backMarkers
607.025049	0.004000	dropped_samples	4688.974979	Dropped 1 samples	n/a	n/a	n/a	n/a	n/a	n/a	1	UoHDataOffsetStream
608.241051	0.000000	2-back	4690.190980	Steps:2 KeyPress:False Matched:False	1	2	false	false	Correct	false	n/a	n-backMarkers
609.942124	0.000000	2-back	4691.892054	Steps:2 KeyPress:False Matched:True	0	2	false	true	Wrong	false	n/a	n-backMarkers
611.642904	0.000000	2-back	4693.592833	Steps:2 KeyPress:False Matched:False	1	2	false	false	Correct	false	n/a	n-backMarkers
613.342998	0.000000	2-back	4695.292927	Steps:2 KeyPress:False Matched:False	1	2	false	false	Correct	false	n/a	n-backMarkers
615.044042	0.000000	2-back	4696.993972	Steps:2 KeyPress:False Matched:False	1	2	false	false	Correct	false	n/a	n-backMarkers
615.135349	0.012000	dropped_samples	4697.085279	Dropped 3 samples	n/a	n/a	n/a	n/a	n/a	n/a	3	UoHDataOffsetStream
616.745719	0.000000	2-back	4698.695648	Steps:2 KeyPress:True Matched:False	0	2	true	false	Wrong	false	n/a	n-backMarkers
617.681688	0.004000	dropped_samples	4699.631618	Dropped 1 samples	n/a	n/a	n/a	n/a	n/a	n/a	1	UoHDataOffsetStream
618.445751	0.000000	2-back	4700.395681	Steps:2 KeyPress:False Matched:False	1	2	false	false	Correct	false	n/a	n-backMarkers
620.146844	0.000000	2-back	4702.096774	Steps:2 KeyPress:False Matched:False	1	2	false	false	Correct	false	n/a	n-backMarkers
621.847936	0.000000	2-back	4703.797866	Steps:2 KeyPress:True Matched:False	0	2	true	false	Wrong	false	n/a	n-backMarkers
622.576856	0.012000	dropped_samples	4704.526786	Dropped 3 samples	n/a	n/a	n/a	n/a	n/a	n/a	3	UoHDataOffsetStream
623.548950	0.000000	2-back	4705.498879	Steps:2 KeyPress:False Matched:True	0	2	false	true	Wrong	false	n/a	n-backMarkers
624.593374	0.004000	dropped_samples	4706.543304	Dropped 1 samples	n/a	n/a	n/a	n/a	n/a	n/a	1	UoHDataOffsetStream
625.250834	0.000000	2-back	4707.200764	Steps:2 KeyPress:False Matched:False	1	2	false	false	Correct	false	n/a	n-backMarkers
626.951853	0.000000	2-back	4708.901782	Steps:2 KeyPress:False Matched:True	0	2	false	true	Wrong	false	n/a	n-backMarkers
628.653302	0.000000	2-back	4710.603232	Steps:2 KeyPress:False Matched:False	1	2	false	false	Correct	false	n/a	n-backMarkers
629.583684	0.008000	dropped_samples	4711.533614	Dropped 2 samples	n/a	n/a	n/a	n/a	n/a	n/a	2	UoHDataOffsetStream
630.208664	0.004000	dropped_samples	4712.158594	Dropped 1 samples	n/a	n/a	n/a	n/a	n/a	n/a	1	UoHDataOffsetStream
630.354076	0.000000	2-back	4712.304006	Steps:2 KeyPress:False Matched:False	1	2	false	false	Correct	false	n/a	n-backMarkers
630.428872	0.012000	dropped_samples	4712.378801	Dropped 3 samples	n/a	n/a	n/a	n/a	n/a	n/a	3	UoHDataOffsetStream
631.361199	0.004000	dropped_samples	4713.311128	Dropped 1 samples	n/a	n/a	n/a	n/a	n/a	n/a	1	UoHDataOffsetStream
632.054845	0.000000	2-back	4714.004775	Steps:2 KeyPress:True Matched:False	0	2	true	false	Wrong	false	n/a	n-backMarkers
633.755308	0.000000	2-back	4715.705238	Steps:2 KeyPress:False Matched:False	1	2	false	false	Correct	false	n/a	n-backMarkers
634.383426	0.004000	dropped_samples	4716.333356	Dropped 1 samples	n/a	n/a	n/a	n/a	n/a	n/a	1	UoHDataOffsetStream
635.456230	0.000000	2-back	4717.406160	Steps:2 KeyPress:False Matched:False	1	2	false	false	Correct	false	n/a	n-backMarkers
637.156710	0.000000	2-back	4719.106639	Steps:2 KeyPress:True Matched:False	0	2	true	false	Wrong	false	n/a	n-backMarkers
637.694016	0.004000	dropped_samples	4719.643945	Dropped 1 samples	n/a	n/a	n/a	n/a	n/a	n/a	1	UoHDataOffsetStream
638.857138	0.000000	2-back	4720.807068	Steps:2 KeyPress:False Matched:False	1	2	false	false	Correct	false	n/a	n-backMarkers
640.557774	0.000000	2-back	4722.507704	Steps:2 KeyPress:False Matched:False	1	2	false	false	Correct	false	n/a	n-backMarkers
641.258501	0.012000	dropped_samples	4723.208431	Dropped 3 samples	n/a	n/a	n/a	n/a	n/a	n/a	3	UoHDataOffsetStream
641.873726	0.004000	dropped_samples	4723.823656	Dropped 1 samples	n/a	n/a	n/a	n/a	n/a	n/a	1	UoHDataOffsetStream
642.113064	0.012000	dropped_samples	4724.062993	Dropped 3 samples	n/a	n/a	n/a	n/a	n/a	n/a	3	UoHDataOffsetStream
642.258897	0.000000	2-back	4724.208826	Steps:2 KeyPress:True Matched:False	0	2	true	false	Wrong	false	n/a	n-backMarkers
643.960016	0.000000	2-back	4725.909945	Steps:2 KeyPress:False Matched:False	1	2	false	false	Correct	false	n/a	n-backMarkers
644.749712	0.008000	dropped_samples	4726.699642	Dropped 2 samples	n/a	n/a	n/a	n/a	n/a	n/a	2	UoHDataOffsetStream
645.472326	0.004000	dropped_samples	4727.422256	Dropped 1 samples	n/a	n/a	n/a	n/a	n/a	n/a	1	UoHDataOffsetStream
645.660091	0.000000	2-back	4727.610021	Steps:2 KeyPress:False Matched:False	1	2	false	false	Correct	false	n/a	n-backMarkers
647.361869	0.000000	2-back	4729.311799	Steps:2 KeyPress:True Matched:False	0	2	true	false	Wrong	false	n/a	n-backMarkers
649.062870	0.000000	2-back	4731.012800	Steps:2 KeyPress:False Matched:False	1	2	false	false	Correct	false	n/a	n-backMarkers
650.223330	0.004000	dropped_samples	4732.173260	Dropped 1 samples	n/a	n/a	n/a	n/a	n/a	n/a	1	UoHDataOffsetStream
650.763876	0.000000	2-back	4732.713806	Steps:2 KeyPress:False Matched:False	1	2	false	false	Correct	false	n/a	n-backMarkers
652.464113	0.000000	2-back	4734.414043	Steps:2 KeyPress:True Matched:False	0	2	true	false	Wrong	false	n/a	n-backMarkers
654.165046	0.000000	2-back	4736.114976	Steps:2 KeyPress:False Matched:False	1	2	false	false	Correct	false	n/a	n-backMarkers
655.865107	0.000000	2-back	4737.815037	Steps:2 KeyPress:False Matched:False	1	2	false	false	Correct	false	n/a	n-backMarkers
657.518311	0.004000	dropped_samples	4739.468240	Dropped 1 samples	n/a	n/a	n/a	n/a	n/a	n/a	1	UoHDataOffsetStream
657.565143	0.000000	2-back	4739.515073	Steps:2 KeyPress:True Matched:False	0	2	true	false	Wrong	false	n/a	n-backMarkers
658.289798	0.004000	dropped_samples	4740.239728	Dropped 1 samples	n/a	n/a	n/a	n/a	n/a	n/a	1	UoHDataOffsetStream
659.266472	0.000000	2-back	4741.216402	Steps:2 KeyPress:False Matched:False	1	2	false	false	Correct	false	n/a	n-backMarkers
660.967826	0.000000	2-back	4742.917756	Steps:2 KeyPress:False Matched:False	1	2	false	false	Correct	false	n/a	n-backMarkers
662.668024	0.000000	2-back	4744.617954	Steps:2 KeyPress:True Matched:False	0	2	true	false	Wrong	false	n/a	n-backMarkers
664.046621	0.004000	dropped_samples	4745.996551	Dropped 1 samples	n/a	n/a	n/a	n/a	n/a	n/a	1	UoHDataOffsetStream
664.368092	0.000000	2-back	4746.318022	Steps:2 KeyPress:False Matched:True	0	2	false	true	Wrong	false	n/a	n-backMarkers
665.106192	0.012000	dropped_samples	4747.056122	Dropped 3 samples	n/a	n/a	n/a	n/a	n/a	n/a	3	UoHDataOffsetStream
666.069840	0.000000	2-back	4748.019770	Steps:2 KeyPress:False Matched:False	1	2	false	false	Correct	false	n/a	n-backMarkers
667.770834	0.000000	2-back	4749.720764	Steps:2 KeyPress:False Matched:True	0	2	false	true	Wrong	false	n/a	n-backMarkers
669.472168	0.000000	2-back	4751.422098	Steps:2 KeyPress:True Matched:False	0	2	true	false	Wrong	false	n/a	n-backMarkers
671.058369	0.012000	dropped_samples	4753.008299	Dropped 3 samples	n/a	n/a	n/a	n/a	n/a	n/a	3	UoHDataOffsetStream
671.172658	0.000000	2-back	4753.122588	Steps:2 KeyPress:False Matched:False	1	2	false	false	Correct	false	n/a	n-backMarkers
672.873484	0.000000	2-back	4754.823414	Steps:2 KeyPress:True Matched:True	1	2	true	true	Correct	false	n/a	n-backMarkers
674.573656	0.000000	2-back	4756.523586	Steps:2 KeyPress:False Matched:True	0	2	false	true	Wrong	false	n/a	n-backMarkers
676.273753	0.000000	2-back	4758.223683	Steps:2 KeyPress:False Matched:False	1	2	false	false	Correct	false	n/a	n-backMarkers
677.974640	0.000000	2-back	4759.924570	Steps:2 KeyPress:False Matched:True	0	2	false	true	Wrong	false	n/a	n-backMarkers
679.674734	0.000000	2-back	4761.624664	Steps:2 KeyPress:False Matched:False	1	2	false	false	Correct	false	n/a	n-backMarkers
681.614992	0.012000	dropped_samples	4763.564922	Dropped 3 samples	n/a	n/a	n/a	n/a	n/a	n/a	3	UoHDataOffsetStream
686.610153	0.004000	dropped_samples	4768.560083	Dropped 1 samples	n/a	n/a	n/a	n/a	n/a	n/a	1	UoHDataOffsetStream
688.396917	0.000000	3-back	4770.346847	Steps:3 KeyPress:False Matched:False	1	3	false	false	Correct	false	n/a	n-backMarkers
690.096950	0.000000	3-back	4772.046880	Steps:3 KeyPress:False Matched:False	1	3	false	false	Correct	false	n/a	n-backMarkers
691.797938	0.000000	3-back	4773.747868	Steps:3 KeyPress:False Matched:False	1	3	false	false	Correct	false	n/a	n-backMarkers
693.498726	0.000000	3-back	4775.448656	Steps:3 KeyPress:False Matched:False	1	3	false	false	Correct	false	n/a	n-backMarkers
694.818156	0.004000	dropped_samples	4776.768086	Dropped 1 samples	n/a	n/a	n/a	n/a	n/a	n/a	1	UoHDataOffsetStream
695.198868	0.000000	3-back	4777.148798	Steps:3 KeyPress:False Matched:False	1	3	false	false	Correct	false	n/a	n-backMarkers
696.899419	0.000000	3-back	4778.849349	Steps:3 KeyPress:False Matched:False	1	3	false	false	Correct	false	n/a	n-backMarkers
698.599830	0.000000	3-back	4780.549760	Steps:3 KeyPress:False Matched:False	1	3	false	false	Correct	false	n/a	n-backMarkers
700.299950	0.000000	3-back	4782.249880	Steps:3 KeyPress:False Matched:False	1	3	false	false	Correct	false	n/a	n-backMarkers
701.922698	0.004000	dropped_samples	4783.872628	Dropped 1 samples	n/a	n/a	n/a	n/a	n/a	n/a	1	UoHDataOffsetStream
702.000842	0.000000	3-back	4783.950772	Steps:3 KeyPress:False Matched:True	0	3	false	true	Wrong	false	n/a	n-backMarkers
702.161913	0.004000	dropped_samples	4784.111843	Dropped 1 samples	n/a	n/a	n/a	n/a	n/a	n/a	1	UoHDataOffsetStream
702.452985	0.004000	dropped_samples	4784.402915	Dropped 1 samples	n/a	n/a	n/a	n/a	n/a	n/a	1	UoHDataOffsetStream
702.977384	0.004000	dropped_samples	4784.927314	Dropped 1 samples	n/a	n/a	n/a	n/a	n/a	n/a	1	UoHDataOffsetStream
703.314268	0.004000	dropped_samples	4785.264197	Dropped 1 samples	n/a	n/a	n/a	n/a	n/a	n/a	1	UoHDataOffsetStream
703.701724	0.000000	3-back	4785.651653	Steps:3 KeyPress:False Matched:False	1	3	false	false	Correct	false	n/a	n-backMarkers
705.402836	0.000000	3-back	4787.352766	Steps:3 KeyPress:False Matched:False	1	3	false	false	Correct	false	n/a	n-backMarkers
707.103662	0.000000	3-back	4789.053592	Steps:3 KeyPress:False Matched:False	1	3	false	false	Correct	false	n/a	n-backMarkers
708.803943	0.000000	3-back	4790.753873	Steps:3 KeyPress:False Matched:False	1	3	false	false	Correct	false	n/a	n-backMarkers
709.217408	0.004000	dropped_samples	4791.167338	Dropped 1 samples	n/a	n/a	n/a	n/a	n/a	n/a	1	UoHDataOffsetStream
709.506134	0.004000	dropped_samples	4791.456064	Dropped 1 samples	n/a	n/a	n/a	n/a	n/a	n/a	1	UoHDataOffsetStream
710.505755	0.000000	3-back	4792.455684	Steps:3 KeyPress:True Matched:False	0	3	true	false	Wrong	false	n/a	n-backMarkers
712.207081	0.000000	3-back	4794.157011	Steps:3 KeyPress:False Matched:True	0	3	false	true	Wrong	false	n/a	n-backMarkers
713.908975	0.000000	3-back	4795.858905	Steps:3 KeyPress:False Matched:False	1	3	false	false	Correct	false	n/a	n-backMarkers
715.169793	0.004000	dropped_samples	4797.119723	Dropped 1 samples	n/a	n/a	n/a	n/a	n/a	n/a	1	UoHDataOffsetStream
715.609665	0.000000	3-back	4797.559595	Steps:3 KeyPress:False Matched:False	1	3	false	false	Correct	false	n/a	n-backMarkers
715.794783	0.004000	dropped_samples	4797.744713	Dropped 1 samples	n/a	n/a	n/a	n/a	n/a	n/a	1	UoHDataOffsetStream
717.310141	0.000000	3-back	4799.260071	Steps:3 KeyPress:False Matched:False	1	3	false	false	Correct	false	n/a	n-backMarkers
717.474447	0.012000	dropped_samples	4799.424376	Dropped 3 samples	n/a	n/a	n/a	n/a	n/a	n/a	3	UoHDataOffsetStream
718.050733	0.012000	dropped_samples	4800.000663	Dropped 3 samples	n/a	n/a	n/a	n/a	n/a	n/a	3	UoHDataOffsetStream
719.011018	0.000000	3-back	4800.960948	Steps:3 KeyPress:False Matched:False	1	3	false	false	Correct	false	n/a	n-backMarkers
720.711813	0.000000	3-back	4802.661743	Steps:3 KeyPress:False Matched:False	1	3	false	false	Correct	false	n/a	n-backMarkers
722.413002	0.000000	3-back	4804.362932	Steps:3 KeyPress:False Matched:False	1	3	false	false	Correct	false	n/a	n-backMarkers
724.115051	0.000000	3-back	4806.064980	Steps:3 KeyPress:False Matched:False	1	3	false	false	Correct	false	n/a	n-backMarkers
725.815689	0.000000	3-back	4807.765619	Steps:3 KeyPress:False Matched:True	0	3	false	true	Wrong	false	n/a	n-backMarkers
726.021324	0.012000	dropped_samples	4807.971254	Dropped 3 samples	n/a	n/a	n/a	n/a	n/a	n/a	3	UoHDataOffsetStream
727.515869	0.000000	3-back	4809.465799	Steps:3 KeyPress:False Matched:False	1	3	false	false	Correct	false	n/a	n-backMarkers
727.743279	0.012000	dropped_samples	4809.693209	Dropped 3 samples	n/a	n/a	n/a	n/a	n/a	n/a	3	UoHDataOffsetStream
729.216522	0.000000	3-back	4811.166452	Steps:3 KeyPress:False Matched:True	0	3	false	true	Wrong	false	n/a	n-backMarkers
730.912038	0.004000	dropped_samples	4812.861968	Dropped 1 samples	n/a	n/a	n/a	n/a	n/a	n/a	1	UoHDataOffsetStream
730.918077	0.000000	3-back	4812.868006	Steps:3 KeyPress:False Matched:False	1	3	false	false	Correct	false	n/a	n-backMarkers
732.618787	0.000000	3-back	4814.568716	Steps:3 KeyPress:False Matched:False	1	3	false	false	Correct	false	n/a	n-backMarkers
734.318968	0.000000	3-back	4816.268897	Steps:3 KeyPress:True Matched:False	0	3	true	false	Wrong	false	n/a	n-backMarkers
736.020018	0.000000	3-back	4817.969947	Steps:3 KeyPress:False Matched:False	1	3	false	false	Correct	false	n/a	n-backMarkers
737.722255	0.000000	3-back	4819.672185	Steps:3 KeyPress:False Matched:False	1	3	false	false	Correct	false	n/a	n-backMarkers
737.918841	0.012000	dropped_samples	4819.868771	Dropped 3 samples	n/a	n/a	n/a	n/a	n/a	n/a	3	UoHDataOffsetStream
739.423692	0.000000	3-back	4821.373622	Steps:3 KeyPress:True Matched:False	0	3	true	false	Wrong	false	n/a	n-backMarkers
740.946297	0.012000	dropped_samples	4822.896227	Dropped 3 samples	n/a	n/a	n/a	n/a	n/a	n/a	3	UoHDataOffsetStream
741.124755	0.000000	3-back	4823.074685	Steps:3 KeyPress:False Matched:False	1	3	false	false	Correct	false	n/a	n-backMarkers
741.185476	0.004000	dropped_samples	4823.135406	Dropped 1 samples	n/a	n/a	n/a	n/a	n/a	n/a	1	UoHDataOffsetStream
742.824826	0.000000	3-back	4824.774756	Steps:3 KeyPress:False Matched:False	1	3	false	false	Correct	false	n/a	n-backMarkers
744.525409	0.000000	3-back	4826.475339	Steps:3 KeyPress:True Matched:False	0	3	true	false	Wrong	false	n/a	n-backMarkers
745.599528	0.012000	dropped_samples	4827.549458	Dropped 3 samples	n/a	n/a	n/a	n/a	n/a	n/a	3	UoHDataOffsetStream
746.226345	0.000000	3-back	4828.176275	Steps:3 KeyPress:False Matched:False	1	3	false	false	Correct	false	n/a	n-backMarkers
747.664985	0.004000	dropped_samples	4829.614915	Dropped 1 samples	n/a	n/a	n/a	n/a	n/a	n/a	1	UoHDataOffsetStream
747.926662	0.000000	3-back	4829.876592	Steps:3 KeyPress:False Matched:False	1	3	false	false	Correct	false	n/a	n-backMarkers
749.626781	0.000000	3-back	4831.576711	Steps:3 KeyPress:False Matched:False	1	3	false	false	Correct	false	n/a	n-backMarkers
751.326797	0.000000	3-back	4833.276727	Steps:3 KeyPress:True Matched:False	0	3	true	false	Wrong	false	n/a	n-backMarkers
753.028611	0.000000	3-back	4834.978541	Steps:3 KeyPress:False Matched:False	1	3	false	false	Correct	false	n/a	n-backMarkers
754.729025	0.000000	3-back	4836.678955	Steps:3 KeyPress:False Matched:False	1	3	false	false	Correct	false	n/a	n-backMarkers
756.019561	0.012000	dropped_samples	4837.969491	Dropped 3 samples	n/a	n/a	n/a	n/a	n/a	n/a	3	UoHDataOffsetStream
756.428816	0.000000	3-back	4838.378745	Steps:3 KeyPress:False Matched:False	1	3	false	false	Correct	false	n/a	n-backMarkers
758.129653	0.000000	3-back	4840.079583	Steps:3 KeyPress:False Matched:False	1	3	false	false	Correct	false	n/a	n-backMarkers
758.226556	0.004000	dropped_samples	4840.176486	Dropped 1 samples	n/a	n/a	n/a	n/a	n/a	n/a	1	UoHDataOffsetStream
759.830673	0.000000	3-back	4841.780602	Steps:3 KeyPress:False Matched:False	1	3	false	false	Correct	false	n/a	n-backMarkers
760.335903	0.004000	dropped_samples	4842.285833	Dropped 1 samples	n/a	n/a	n/a	n/a	n/a	n/a	1	UoHDataOffsetStream
760.575163	0.004000	dropped_samples	4842.525093	Dropped 1 samples	n/a	n/a	n/a	n/a	n/a	n/a	1	UoHDataOffsetStream
761.530797	0.000000	3-back	4843.480726	Steps:3 KeyPress:False Matched:False	1	3	false	false	Correct	false	n/a	n-backMarkers
763.231349	0.000000	3-back	4845.181279	Steps:3 KeyPress:False Matched:False	1	3	false	false	Correct	false	n/a	n-backMarkers
764.932424	0.000000	3-back	4846.882354	Steps:3 KeyPress:False Matched:False	1	3	false	false	Correct	false	n/a	n-backMarkers
766.633500	0.000000	3-back	4848.583430	Steps:3 KeyPress:True Matched:False	0	3	true	false	Wrong	false	n/a	n-backMarkers
768.333643	0.000000	3-back	4850.283573	Steps:3 KeyPress:False Matched:False	1	3	false	false	Correct	false	n/a	n-backMarkers
770.034660	0.000000	3-back	4851.984590	Steps:3 KeyPress:False Matched:True	0	3	false	true	Wrong	false	n/a	n-backMarkers
771.734782	0.000000	3-back	4853.684711	Steps:3 KeyPress:False Matched:False	1	3	false	false	Correct	false	n/a	n-backMarkers
771.810562	0.004000	dropped_samples	4853.760492	Dropped 1 samples	n/a	n/a	n/a	n/a	n/a	n/a	1	UoHDataOffsetStream
772.000984	0.004000	dropped_samples	4853.950914	Dropped 1 samples	n/a	n/a	n/a	n/a	n/a	n/a	1	UoHDataOffsetStream
772.337889	0.004000	dropped_samples	4854.287819	Dropped 1 samples	n/a	n/a	n/a	n/a	n/a	n/a	1	UoHDataOffsetStream
773.436050	0.000000	3-back	4855.385980	Steps:3 KeyPress:False Matched:True	0	3	false	true	Wrong	false	n/a	n-backMarkers
775.136959	0.000000	3-back	4857.086889	Steps:3 KeyPress:False Matched:False	1	3	false	false	Correct	false	n/a	n-backMarkers
776.838559	0.000000	3-back	4858.788489	Steps:3 KeyPress:False Matched:False	1	3	false	false	Correct	false	n/a	n-backMarkers
778.538640	0.000000	3-back	4860.488570	Steps:3 KeyPress:False Matched:False	1	3	false	false	Correct	false	n/a	n-backMarkers
780.067493	0.004000	dropped_samples	4862.017423	Dropped 1 samples	n/a	n/a	n/a	n/a	n/a	n/a	1	UoHDataOffsetStream
780.239858	0.000000	3-back	4862.189788	Steps:3 KeyPress:False Matched:False	1	3	false	false	Correct	false	n/a	n-backMarkers
781.024456	0.004000	dropped_samples	4862.974386	Dropped 1 samples	n/a	n/a	n/a	n/a	n/a	n/a	1	UoHDataOffsetStream
781.649463	0.012000	dropped_samples	4863.599393	Dropped 3 samples	n/a	n/a	n/a	n/a	n/a	n/a	3	UoHDataOffsetStream
781.940812	0.000000	3-back	4863.890742	Steps:3 KeyPress:False Matched:False	1	3	false	false	Correct	false	n/a	n-backMarkers
783.641759	0.000000	3-back	4865.591689	Steps:3 KeyPress:False Matched:False	1	3	false	false	Correct	false	n/a	n-backMarkers
785.342701	0.000000	3-back	4867.292631	Steps:3 KeyPress:True Matched:False	0	3	true	false	Wrong	false	n/a	n-backMarkers
786.019583	0.004000	dropped_samples	4867.969513	Dropped 1 samples	n/a	n/a	n/a	n/a	n/a	n/a	1	UoHDataOffsetStream
787.043711	0.000000	3-back	4868.993641	Steps:3 KeyPress:False Matched:False	1	3	false	false	Correct	false	n/a	n-backMarkers
788.744246	0.000000	3-back	4870.694176	Steps:3 KeyPress:False Matched:True	0	3	false	true	Wrong	false	n/a	n-backMarkers
790.445049	0.000000	3-back	4872.394979	Steps:3 KeyPress:False Matched:False	1	3	false	false	Correct	false	n/a	n-backMarkers
792.145715	0.000000	3-back	4874.095644	Steps:3 KeyPress:False Matched:True	0	3	false	true	Wrong	false	n/a	n-backMarkers
793.846498	0.000000	3-back	4875.796428	Steps:3 KeyPress:False Matched:False	1	3	false	false	Correct	false	n/a	n-backMarkers
795.547732	0.000000	3-back	4877.497662	Steps:3 KeyPress:True Matched:False	0	3	true	false	Wrong	false	n/a	n-backMarkers
795.619221	0.004000	dropped_samples	4877.569151	Dropped 1 samples	n/a	n/a	n/a	n/a	n/a	n/a	1	UoHDataOffsetStream
797.249592	0.000000	3-back	4879.199521	Steps:3 KeyPress:False Matched:True	0	3	false	true	Wrong	false	n/a	n-backMarkers
798.950616	0.000000	3-back	4880.900546	Steps:3 KeyPress:False Matched:False	1	3	false	false	Correct	false	n/a	n-backMarkers
799.842836	0.004000	dropped_samples	4881.792765	Dropped 1 samples	n/a	n/a	n/a	n/a	n/a	n/a	1	UoHDataOffsetStream
800.651532	0.000000	3-back	4882.601461	Steps:3 KeyPress:False Matched:False	1	3	false	false	Correct	false	n/a	n-backMarkers
802.351724	0.000000	3-back	4884.301654	Steps:3 KeyPress:False Matched:False	1	3	false	false	Correct	false	n/a	n-backMarkers
804.052647	0.000000	3-back	4886.002577	Steps:3 KeyPress:False Matched:False	1	3	false	false	Correct	false	n/a	n-backMarkers
805.753637	0.000000	3-back	4887.703566	Steps:3 KeyPress:True Matched:False	0	3	true	false	Wrong	false	n/a	n-backMarkers
805.985450	0.004000	dropped_samples	4887.935380	Dropped 1 samples	n/a	n/a	n/a	n/a	n/a	n/a	1	UoHDataOffsetStream
807.454560	0.000000	3-back	4889.404490	Steps:3 KeyPress:False Matched:True	0	3	false	true	Wrong	false	n/a	n-backMarkers
809.155508	0.000000	3-back	4891.105438	Steps:3 KeyPress:False Matched:False	1	3	false	false	Correct	false	n/a	n-backMarkers
810.856678	0.000000	3-back	4892.806608	Steps:3 KeyPress:False Matched:False	1	3	false	false	Correct	false	n/a	n-backMarkers
812.557623	0.000000	3-back	4894.507553	Steps:3 KeyPress:False Matched:False	1	3	false	false	Correct	false	n/a	n-backMarkers
814.258440	0.000000	3-back	4896.208370	Steps:3 KeyPress:False Matched:False	1	3	false	false	Correct	false	n/a	n-backMarkers
814.481616	0.004000	dropped_samples	4896.431546	Dropped 1 samples	n/a	n/a	n/a	n/a	n/a	n/a	1	UoHDataOffsetStream
815.958768	0.000000	3-back	4897.908698	Steps:3 KeyPress:False Matched:True	0	3	false	true	Wrong	false	n/a	n-backMarkers
816.356626	0.004000	dropped_samples	4898.306555	Dropped 1 samples	n/a	n/a	n/a	n/a	n/a	n/a	1	UoHDataOffsetStream
816.835057	0.004000	dropped_samples	4898.784986	Dropped 1 samples	n/a	n/a	n/a	n/a	n/a	n/a	1	UoHDataOffsetStream
817.659755	0.000000	3-back	4899.609685	Steps:3 KeyPress:False Matched:False	1	3	false	false	Correct	false	n/a	n-backMarkers
819.360618	0.000000	3-back	4901.310548	Steps:3 KeyPress:False Matched:False	1	3	false	false	Correct	false	n/a	n-backMarkers
821.061556	0.000000	3-back	4903.011486	Steps:3 KeyPress:False Matched:False	1	3	false	false	Correct	false	n/a	n-backMarkers
821.586096	0.012000	dropped_samples	4903.536026	Dropped 3 samples	n/a	n/a	n/a	n/a	n/a	n/a	3	UoHDataOffsetStream
822.162247	0.004000	dropped_samples	4904.112176	Dropped 1 samples	n/a	n/a	n/a	n/a	n/a	n/a	1	UoHDataOffsetStream
822.761777	0.000000	3-back	4904.711707	Steps:3 KeyPress:True Matched:False	0	3	true	false	Wrong	false	n/a	n-backMarkers
824.462776	0.000000	3-back	4906.412706	Steps:3 KeyPress:False Matched:True	0	3	false	true	Wrong	false	n/a	n-backMarkers
825.135561	0.004000	dropped_samples	4907.085490	Dropped 1 samples	n/a	n/a	n/a	n/a	n/a	n/a	1	UoHDataOffsetStream
825.380036	0.012000	dropped_samples	4907.329966	Dropped 3 samples	n/a	n/a	n/a	n/a	n/a	n/a	3	UoHDataOffsetStream
826.163658	0.000000	3-back	4908.113588	Steps:3 KeyPress:False Matched:False	1	3	false	false	Correct	false	n/a	n-backMarkers
826.385910	0.004000	dropped_samples	4908.335840	Dropped 1 samples	n/a	n/a	n/a	n/a	n/a	n/a	1	UoHDataOffsetStream
827.864301	0.000000	3-back	4909.814231	Steps:3 KeyPress:False Matched:False	1	3	false	false	Correct	false	n/a	n-backMarkers
829.565703	0.000000	3-back	4911.515633	Steps:3 KeyPress:False Matched:False	1	3	false	false	Correct	false	n/a	n-backMarkers
831.267558	0.000000	3-back	4913.217488	Steps:3 KeyPress:False Matched:False	1	3	false	false	Correct	false	n/a	n-backMarkers
831.571459	0.004000	dropped_samples	4913.521389	Dropped 1 samples	n/a	n/a	n/a	n/a	n/a	n/a	1	UoHDataOffsetStream
832.968727	0.000000	3-back	4914.918657	Steps:3 KeyPress:False Matched:True	0	3	false	true	Wrong	false	n/a	n-backMarkers
834.668629	0.000000	3-back	4916.618559	Steps:3 KeyPress:False Matched:False	1	3	false	false	Correct	false	n/a	n-backMarkers
834.784368	0.012000	dropped_samples	4916.734298	Dropped 3 samples	n/a	n/a	n/a	n/a	n/a	n/a	3	UoHDataOffsetStream
836.369614	0.000000	3-back	4918.319544	Steps:3 KeyPress:False Matched:False	1	3	false	false	Correct	false	n/a	n-backMarkers
837.040244	0.012000	dropped_samples	4918.990174	Dropped 3 samples	n/a	n/a	n/a	n/a	n/a	n/a	3	UoHDataOffsetStream
838.070648	0.000000	3-back	4920.020578	Steps:3 KeyPress:False Matched:False	1	3	false	false	Correct	false	n/a	n-backMarkers
838.544172	0.012000	dropped_samples	4920.494102	Dropped 3 samples	n/a	n/a	n/a	n/a	n/a	n/a	3	UoHDataOffsetStream
838.578269	0.012000	dropped_samples	4920.528199	Dropped 3 samples	n/a	n/a	n/a	n/a	n/a	n/a	3	UoHDataOffsetStream
839.681803	0.004000	dropped_samples	4921.631733	Dropped 1 samples	n/a	n/a	n/a	n/a	n/a	n/a	1	UoHDataOffsetStream
839.771630	0.000000	3-back	4921.721560	Steps:3 KeyPress:False Matched:False	1	3	false	false	Correct	false	n/a	n-backMarkers
840.355647	0.004000	dropped_samples	4922.305576	Dropped 1 samples	n/a	n/a	n/a	n/a	n/a	n/a	1	UoHDataOffsetStream
841.471715	0.000000	3-back	4923.421645	Steps:3 KeyPress:False Matched:False	1	3	false	false	Correct	false	n/a	n-backMarkers
841.649596	0.012000	dropped_samples	4923.599525	Dropped 3 samples	n/a	n/a	n/a	n/a	n/a	n/a	3	UoHDataOffsetStream
842.372252	0.012000	dropped_samples	4924.322182	Dropped 3 samples	n/a	n/a	n/a	n/a	n/a	n/a	3	UoHDataOffsetStream
843.173614	0.000000	3-back	4925.123544	Steps:3 KeyPress:False Matched:False	1	3	false	false	Correct	false	n/a	n-backMarkers
844.720858	0.004000	dropped_samples	4926.670787	Dropped 1 samples	n/a	n/a	n/a	n/a	n/a	n/a	1	UoHDataOffsetStream
844.873665	0.000000	3-back	4926.823595	Steps:3 KeyPress:False Matched:False	1	3	false	false	Correct	false	n/a	n-backMarkers
846.574606	0.000000	3-back	4928.524536	Steps:3 KeyPress:False Matched:False	1	3	false	false	Correct	false	n/a	n-backMarkers
848.275566	0.000000	3-back	4930.225496	Steps:3 KeyPress:False Matched:True	0	3	false	true	Wrong	false	n/a	n-backMarkers
849.976824	0.000000	3-back	4931.926754	Steps:3 KeyPress:False Matched:False	1	3	false	false	Correct	false	n/a	n-backMarkers
851.678643	0.000000	3-back	4933.628573	Steps:3 KeyPress:False Matched:False	1	3	false	false	Correct	false	n/a	n-backMarkers
853.379705	0.000000	3-back	4935.329635	Steps:3 KeyPress:False Matched:False	1	3	false	false	Correct	false	n/a	n-backMarkers
855.079894	0.000000	3-back	4937.029823	Steps:3 KeyPress:False Matched:False	1	3	false	false	Correct	false	n/a	n-backMarkers
856.273994	0.012000	dropped_samples	4938.223923	Dropped 3 samples	n/a	n/a	n/a	n/a	n/a	n/a	3	UoHDataOffsetStream
856.337124	0.016000	dropped_samples	4938.287054	Dropped 4 samples	n/a	n/a	n/a	n/a	n/a	n/a	4	UoHDataOffsetStream
856.780664	0.000000	3-back	4938.730593	Steps:3 KeyPress:True Matched:False	0	3	true	false	Wrong	false	n/a	n-backMarkers
864.403553	0.004000	dropped_samples	4946.353482	Dropped 1 samples	n/a	n/a	n/a	n/a	n/a	n/a	1	UoHDataOffsetStream
865.361069	0.004000	dropped_samples	4947.310998	Dropped 1 samples	n/a	n/a	n/a	n/a	n/a	n/a	1	UoHDataOffsetStream
865.494648	0.000000	4-back	4947.444578	Steps:4 KeyPress:False Matched:False	1	4	false	false	Correct	false	n/a	n-backMarkers
865.697508	0.004000	dropped_samples	4947.647437	Dropped 1 samples	n/a	n/a	n/a	n/a	n/a	n/a	1	UoHDataOffsetStream
866.757122	0.012000	dropped_samples	4948.707052	Dropped 3 samples	n/a	n/a	n/a	n/a	n/a	n/a	3	UoHDataOffsetStream
867.195554	0.000000	4-back	4949.145484	Steps:4 KeyPress:False Matched:True	0	4	false	true	Wrong	false	n/a	n-backMarkers
868.895709	0.000000	4-back	4950.845638	Steps:4 KeyPress:False Matched:False	1	4	false	false	Correct	false	n/a	n-backMarkers
870.597670	0.000000	4-back	4952.547600	Steps:4 KeyPress:False Matched:False	1	4	false	false	Correct	false	n/a	n-backMarkers
870.692662	0.012000	dropped_samples	4952.642592	Dropped 3 samples	n/a	n/a	n/a	n/a	n/a	n/a	3	UoHDataOffsetStream
872.298378	0.000000	4-back	4954.248308	Steps:4 KeyPress:False Matched:False	1	4	false	false	Correct	false	n/a	n-backMarkers
872.465397	0.004000	dropped_samples	4954.415327	Dropped 1 samples	n/a	n/a	n/a	n/a	n/a	n/a	1	UoHDataOffsetStream
873.568634	0.004000	dropped_samples	4955.518564	Dropped 1 samples	n/a	n/a	n/a	n/a	n/a	n/a	1	UoHDataOffsetStream
873.998489	0.000000	4-back	4955.948419	Steps:4 KeyPress:True Matched:True	1	4	true	true	Correct	false	n/a	n-backMarkers
875.698701	0.000000	4-back	4957.648630	Steps:4 KeyPress:True Matched:False	0	4	true	false	Wrong	false	n/a	n-backMarkers
877.399595	0.000000	4-back	4959.349525	Steps:4 KeyPress:False Matched:True	0	4	false	true	Wrong	false	n/a	n-backMarkers
878.514922	0.012000	dropped_samples	4960.464852	Dropped 3 samples	n/a	n/a	n/a	n/a	n/a	n/a	3	UoHDataOffsetStream
879.100279	0.000000	4-back	4961.050209	Steps:4 KeyPress:False Matched:False	1	4	false	false	Correct	false	n/a	n-backMarkers
879.247389	0.012000	dropped_samples	4961.197319	Dropped 3 samples	n/a	n/a	n/a	n/a	n/a	n/a	3	UoHDataOffsetStream
880.800418	0.000000	4-back	4962.750348	Steps:4 KeyPress:False Matched:False	1	4	false	false	Correct	false	n/a	n-backMarkers
882.501550	0.000000	4-back	4964.451480	Steps:4 KeyPress:False Matched:False	1	4	false	false	Correct	false	n/a	n-backMarkers
884.202643	0.000000	4-back	4966.152572	Steps:4 KeyPress:True Matched:True	1	4	true	true	Correct	false	n/a	n-backMarkers
885.903582	0.000000	4-back	4967.853512	Steps:4 KeyPress:False Matched:True	0	4	false	true	Wrong	false	n/a	n-backMarkers
886.005176	0.012000	dropped_samples	4967.955105	Dropped 3 samples	n/a	n/a	n/a	n/a	n/a	n/a	3	UoHDataOffsetStream
887.605286	0.000000	4-back	4969.555215	Steps:4 KeyPress:False Matched:False	1	4	false	false	Correct	false	n/a	n-backMarkers
887.777580	0.004000	dropped_samples	4969.727510	Dropped 1 samples	n/a	n/a	n/a	n/a	n/a	n/a	1	UoHDataOffsetStream
888.304929	0.004000	dropped_samples	4970.254859	Dropped 1 samples	n/a	n/a	n/a	n/a	n/a	n/a	1	UoHDataOffsetStream
889.306608	0.000000	4-back	4971.256538	Steps:4 KeyPress:False Matched:False	1	4	false	false	Correct	false	n/a	n-backMarkers
891.007634	0.000000	4-back	4972.957564	Steps:4 KeyPress:False Matched:False	1	4	false	false	Correct	false	n/a	n-backMarkers
891.620606	0.004000	dropped_samples	4973.570536	Dropped 1 samples	n/a	n/a	n/a	n/a	n/a	n/a	1	UoHDataOffsetStream
891.908461	0.004000	dropped_samples	4973.858391	Dropped 1 samples	n/a	n/a	n/a	n/a	n/a	n/a	1	UoHDataOffsetStream
892.435816	0.004000	dropped_samples	4974.385746	Dropped 1 samples	n/a	n/a	n/a	n/a	n/a	n/a	1	UoHDataOffsetStream
892.708661	0.000000	4-back	4974.658590	Steps:4 KeyPress:True Matched:True	1	4	true	true	Correct	false	n/a	n-backMarkers
893.002365	0.012000	dropped_samples	4974.952294	Dropped 3 samples	n/a	n/a	n/a	n/a	n/a	n/a	3	UoHDataOffsetStream
893.060885	0.024000	dropped_samples	4975.010815	Dropped 6 samples	n/a	n/a	n/a	n/a	n/a	n/a	6	UoHDataOffsetStream
894.408838	0.000000	4-back	4976.358768	Steps:4 KeyPress:False Matched:False	1	4	false	false	Correct	false	n/a	n-backMarkers
895.795076	0.004000	dropped_samples	4977.745005	Dropped 1 samples	n/a	n/a	n/a	n/a	n/a	n/a	1	UoHDataOffsetStream
896.110636	0.000000	4-back	4978.060566	Steps:4 KeyPress:False Matched:True	0	4	false	true	Wrong	false	n/a	n-backMarkers
897.216729	0.012000	dropped_samples	4979.166658	Dropped 3 samples	n/a	n/a	n/a	n/a	n/a	n/a	3	UoHDataOffsetStream
897.284508	0.008000	dropped_samples	4979.234437	Dropped 2 samples	n/a	n/a	n/a	n/a	n/a	n/a	2	UoHDataOffsetStream
897.811330	0.000000	4-back	4979.761260	Steps:4 KeyPress:False Matched:False	1	4	false	false	Correct	false	n/a	n-backMarkers
899.512915	0.000000	4-back	4981.462845	Steps:4 KeyPress:False Matched:False	1	4	false	false	Correct	false	n/a	n-backMarkers
901.212515	0.000000	4-back	4983.162444	Steps:4 KeyPress:False Matched:False	1	4	false	false	Correct	false	n/a	n-backMarkers
902.816778	0.012000	dropped_samples	4984.766708	Dropped 3 samples	n/a	n/a	n/a	n/a	n/a	n/a	3	UoHDataOffsetStream
902.850932	0.012000	dropped_samples	4984.800862	Dropped 3 samples	n/a	n/a	n/a	n/a	n/a	n/a	3	UoHDataOffsetStream
902.914487	0.000000	4-back	4984.864416	Steps:4 KeyPress:True Matched:True	1	4	true	true	Correct	false	n/a	n-backMarkers
904.614642	0.000000	4-back	4986.564572	Steps:4 KeyPress:False Matched:True	0	4	false	true	Wrong	false	n/a	n-backMarkers
906.316912	0.000000	4-back	4988.266842	Steps:4 KeyPress:False Matched:False	1	4	false	false	Correct	false	n/a	n-backMarkers
908.018361	0.000000	4-back	4989.968290	Steps:4 KeyPress:False Matched:False	1	4	false	false	Correct	false	n/a	n-backMarkers
909.719564	0.000000	4-back	4991.669494	Steps:4 KeyPress:False Matched:False	1	4	false	false	Correct	false	n/a	n-backMarkers
911.421487	0.000000	4-back	4993.371416	Steps:4 KeyPress:True Matched:True	1	4	true	true	Correct	false	n/a	n-backMarkers
912.689957	0.012000	dropped_samples	4994.639886	Dropped 3 samples	n/a	n/a	n/a	n/a	n/a	n/a	3	UoHDataOffsetStream
913.122772	0.000000	4-back	4995.072702	Steps:4 KeyPress:False Matched:False	1	4	false	false	Correct	false	n/a	n-backMarkers
914.823431	0.000000	4-back	4996.773360	Steps:4 KeyPress:False Matched:True	0	4	false	true	Wrong	false	n/a	n-backMarkers
916.524472	0.000000	4-back	4998.474401	Steps:4 KeyPress:False Matched:False	1	4	false	false	Correct	false	n/a	n-backMarkers
918.224862	0.000000	4-back	5000.174792	Steps:4 KeyPress:False Matched:False	1	4	false	false	Correct	false	n/a	n-backMarkers
918.500403	0.004000	dropped_samples	5000.450332	Dropped 1 samples	n/a	n/a	n/a	n/a	n/a	n/a	1	UoHDataOffsetStream
919.926485	0.000000	4-back	5001.876415	Steps:4 KeyPress:False Matched:False	1	4	false	false	Correct	false	n/a	n-backMarkers
921.627450	0.000000	4-back	5003.577379	Steps:4 KeyPress:False Matched:True	0	4	false	true	Wrong	false	n/a	n-backMarkers
923.328709	0.000000	4-back	5005.278639	Steps:4 KeyPress:False Matched:False	1	4	false	false	Correct	false	n/a	n-backMarkers
925.030387	0.000000	4-back	5006.980316	Steps:4 KeyPress:False Matched:False	1	4	false	false	Correct	false	n/a	n-backMarkers
925.844159	0.012000	dropped_samples	5007.794089	Dropped 3 samples	n/a	n/a	n/a	n/a	n/a	n/a	3	UoHDataOffsetStream
926.731559	0.000000	4-back	5008.681489	Steps:4 KeyPress:False Matched:True	0	4	false	true	Wrong	false	n/a	n-backMarkers
928.432384	0.000000	4-back	5010.382314	Steps:4 KeyPress:False Matched:False	1	4	false	false	Correct	false	n/a	n-backMarkers
930.133418	0.000000	4-back	5012.083348	Steps:4 KeyPress:False Matched:False	1	4	false	false	Correct	false	n/a	n-backMarkers
930.356247	0.004000	dropped_samples	5012.306177	Dropped 1 samples	n/a	n/a	n/a	n/a	n/a	n/a	1	UoHDataOffsetStream
931.796304	0.004000	dropped_samples	5013.746234	Dropped 1 samples	n/a	n/a	n/a	n/a	n/a	n/a	1	UoHDataOffsetStream
931.834618	0.000000	4-back	5013.784548	Steps:4 KeyPress:False Matched:False	1	4	false	false	Correct	false	n/a	n-backMarkers
932.177163	0.012000	dropped_samples	5014.127093	Dropped 3 samples	n/a	n/a	n/a	n/a	n/a	n/a	3	UoHDataOffsetStream
932.274821	0.004000	dropped_samples	5014.224750	Dropped 1 samples	n/a	n/a	n/a	n/a	n/a	n/a	1	UoHDataOffsetStream
933.535440	0.000000	4-back	5015.485370	Steps:4 KeyPress:False Matched:True	0	4	false	true	Wrong	false	n/a	n-backMarkers
935.237672	0.000000	4-back	5017.187602	Steps:4 KeyPress:True Matched:True	1	4	true	true	Correct	false	n/a	n-backMarkers
936.938559	0.000000	4-back	5018.888489	Steps:4 KeyPress:False Matched:False	1	4	false	false	Correct	false	n/a	n-backMarkers
938.640467	0.000000	4-back	5020.590397	Steps:4 KeyPress:False Matched:False	1	4	false	false	Correct	false	n/a	n-backMarkers
940.342364	0.000000	4-back	5022.292294	Steps:4 KeyPress:False Matched:False	1	4	false	false	Correct	false	n/a	n-backMarkers
942.042529	0.000000	4-back	5023.992459	Steps:4 KeyPress:False Matched:True	0	4	false	true	Wrong	false	n/a	n-backMarkers
942.836372	0.012000	dropped_samples	5024.786302	Dropped 3 samples	n/a	n/a	n/a	n/a	n/a	n/a	3	UoHDataOffsetStream
943.743331	0.000000	4-back	5025.693261	Steps:4 KeyPress:False Matched:True	0	4	false	true	Wrong	false	n/a	n-backMarkers
943.988705	0.012000	dropped_samples	5025.938635	Dropped 3 samples	n/a	n/a	n/a	n/a	n/a	n/a	3	UoHDataOffsetStream
945.444829	0.000000	4-back	5027.394758	Steps:4 KeyPress:False Matched:False	1	4	false	false	Correct	false	n/a	n-backMarkers
947.146326	0.000000	4-back	5029.096255	Steps:4 KeyPress:False Matched:False	1	4	false	false	Correct	false	n/a	n-backMarkers
948.351283	0.012000	dropped_samples	5030.301213	Dropped 3 samples	n/a	n/a	n/a	n/a	n/a	n/a	3	UoHDataOffsetStream
948.591739	0.012000	dropped_samples	5030.541669	Dropped 3 samples	n/a	n/a	n/a	n/a	n/a	n/a	3	UoHDataOffsetStream
948.638633	0.004000	dropped_samples	5030.588562	Dropped 1 samples	n/a	n/a	n/a	n/a	n/a	n/a	1	UoHDataOffsetStream
948.646899	0.056000	dropped_samples	5030.596828	Dropped 14 samples	n/a	n/a	n/a	n/a	n/a	n/a	14	UoHDataOffsetStream
948.788557	0.004000	dropped_samples	5030.738486	Dropped 1 samples	n/a	n/a	n/a	n/a	n/a	n/a	1	UoHDataOffsetStream
948.847392	0.000000	4-back	5030.797322	Steps:4 KeyPress:False Matched:False	1	4	false	false	Correct	false	n/a	n-backMarkers
950.548870	0.000000	4-back	5032.498799	Steps:4 KeyPress:True Matched:True	1	4	true	true	Correct	false	n/a	n-backMarkers
952.250275	0.000000	4-back	5034.200205	Steps:4 KeyPress:False Matched:True	0	4	false	true	Wrong	false	n/a	n-backMarkers
953.951369	0.000000	4-back	5035.901299	Steps:4 KeyPress:False Matched:False	1	4	false	false	Correct	false	n/a	n-backMarkers
955.651592	0.000000	4-back	5037.601522	Steps:4 KeyPress:False Matched:False	1	4	false	false	Correct	false	n/a	n-backMarkers
957.353054	0.000000	4-back	5039.302984	Steps:4 KeyPress:False Matched:False	1	4	false	false	Correct	false	n/a	n-backMarkers
959.053759	0.000000	4-back	5041.003688	Steps:4 KeyPress:True Matched:True	1	4	true	true	Correct	false	n/a	n-backMarkers
960.755211	0.000000	4-back	5042.705141	Steps:4 KeyPress:False Matched:False	1	4	false	false	Correct	false	n/a	n-backMarkers
962.455355	0.000000	4-back	5044.405285	Steps:4 KeyPress:False Matched:True	0	4	false	true	Wrong	false	n/a	n-backMarkers
964.156666	0.000000	4-back	5046.106596	Steps:4 KeyPress:False Matched:False	1	4	false	false	Correct	false	n/a	n-backMarkers
965.857426	0.000000	4-back	5047.807355	Steps:4 KeyPress:False Matched:False	1	4	false	false	Correct	false	n/a	n-backMarkers
967.411640	0.012000	dropped_samples	5049.361569	Dropped 3 samples	n/a	n/a	n/a	n/a	n/a	n/a	3	UoHDataOffsetStream
967.558820	0.000000	4-back	5049.508750	Steps:4 KeyPress:False Matched:False	1	4	false	false	Correct	false	n/a	n-backMarkers
969.259815	0.000000	4-back	5051.209745	Steps:4 KeyPress:True Matched:True	1	4	true	true	Correct	false	n/a	n-backMarkers
970.960402	0.000000	4-back	5052.910332	Steps:4 KeyPress:False Matched:True	0	4	false	true	Wrong	false	n/a	n-backMarkers
971.635260	0.004000	dropped_samples	5053.585189	Dropped 1 samples	n/a	n/a	n/a	n/a	n/a	n/a	1	UoHDataOffsetStream
972.661437	0.000000	4-back	5054.611367	Steps:4 KeyPress:False Matched:False	1	4	false	false	Correct	false	n/a	n-backMarkers
973.554201	0.012000	dropped_samples	5055.504131	Dropped 3 samples	n/a	n/a	n/a	n/a	n/a	n/a	3	UoHDataOffsetStream
974.363111	0.000000	4-back	5056.313041	Steps:4 KeyPress:False Matched:False	1	4	false	false	Correct	false	n/a	n-backMarkers
975.717286	0.012000	dropped_samples	5057.667216	Dropped 3 samples	n/a	n/a	n/a	n/a	n/a	n/a	3	UoHDataOffsetStream
976.063667	0.000000	4-back	5058.013597	Steps:4 KeyPress:False Matched:False	1	4	false	false	Correct	false	n/a	n-backMarkers
977.764449	0.000000	4-back	5059.714379	Steps:4 KeyPress:True Matched:True	1	4	true	true	Correct	false	n/a	n-backMarkers
979.466375	0.000000	4-back	5061.416304	Steps:4 KeyPress:False Matched:False	1	4	false	false	Correct	false	n/a	n-backMarkers
981.167402	0.000000	4-back	5063.117332	Steps:4 KeyPress:False Matched:False	1	4	false	false	Correct	false	n/a	n-backMarkers
982.867430	0.000000	4-back	5064.817359	Steps:4 KeyPress:False Matched:True	0	4	false	true	Wrong	false	n/a	n-backMarkers
984.568975	0.000000	4-back	5066.518905	Steps:4 KeyPress:False Matched:False	1	4	false	false	Correct	false	n/a	n-backMarkers
986.083562	0.004000	dropped_samples	5068.033492	Dropped 1 samples	n/a	n/a	n/a	n/a	n/a	n/a	1	UoHDataOffsetStream
986.269213	0.000000	4-back	5068.219143	Steps:4 KeyPress:False Matched:False	1	4	false	false	Correct	false	n/a	n-backMarkers
987.969363	0.000000	4-back	5069.919293	Steps:4 KeyPress:False Matched:False	1	4	false	false	Correct	false	n/a	n-backMarkers
989.669361	0.000000	4-back	5071.619290	Steps:4 KeyPress:True Matched:True	1	4	true	true	Correct	false	n/a	n-backMarkers
990.644185	0.012000	dropped_samples	5072.594115	Dropped 3 samples	n/a	n/a	n/a	n/a	n/a	n/a	3	UoHDataOffsetStream
991.317808	0.004000	dropped_samples	5073.267738	Dropped 1 samples	n/a	n/a	n/a	n/a	n/a	n/a	1	UoHDataOffsetStream
991.369419	0.000000	4-back	5073.319349	Steps:4 KeyPress:False Matched:False	1	4	false	false	Correct	false	n/a	n-backMarkers
991.894116	0.012000	dropped_samples	5073.844046	Dropped 3 samples	n/a	n/a	n/a	n/a	n/a	n/a	3	UoHDataOffsetStream
993.070422	0.000000	4-back	5075.020352	Steps:4 KeyPress:False Matched:True	0	4	false	true	Wrong	false	n/a	n-backMarkers
994.770436	0.000000	4-back	5076.720366	Steps:4 KeyPress:False Matched:False	1	4	false	false	Correct	false	n/a	n-backMarkers
996.472402	0.000000	4-back	5078.422332	Steps:4 KeyPress:False Matched:False	1	4	false	false	Correct	false	n/a	n-backMarkers
998.174391	0.000000	4-back	5080.124320	Steps:4 KeyPress:False Matched:False	1	4	false	false	Correct	false	n/a	n-backMarkers
999.875429	0.000000	4-back	5081.825358	Steps:4 KeyPress:True Matched:True	1	4	true	true	Correct	false	n/a	n-backMarkers
1001.576476	0.000000	4-back	5083.526406	Steps:4 KeyPress:False Matched:False	1	4	false	false	Correct	false	n/a	n-backMarkers
1002.021073	0.004000	dropped_samples	5083.971003	Dropped 1 samples	n/a	n/a	n/a	n/a	n/a	n/a	1	UoHDataOffsetStream
1002.738884	0.004000	dropped_samples	5084.688814	Dropped 1 samples	n/a	n/a	n/a	n/a	n/a	n/a	1	UoHDataOffsetStream
1003.075766	0.012000	dropped_samples	5085.025696	Dropped 3 samples	n/a	n/a	n/a	n/a	n/a	n/a	3	UoHDataOffsetStream
1003.266153	0.004000	dropped_samples	5085.216082	Dropped 1 samples	n/a	n/a	n/a	n/a	n/a	n/a	1	UoHDataOffsetStream
1003.277261	0.000000	4-back	5085.227190	Steps:4 KeyPress:False Matched:True	0	4	false	true	Wrong	false	n/a	n-backMarkers
1004.978391	0.000000	4-back	5086.928321	Steps:4 KeyPress:False Matched:False	1	4	false	false	Correct	false	n/a	n-backMarkers
1006.679291	0.000000	4-back	5088.629221	Steps:4 KeyPress:False Matched:False	1	4	false	false	Correct	false	n/a	n-backMarkers
1006.918539	0.012000	dropped_samples	5088.868468	Dropped 3 samples	n/a	n/a	n/a	n/a	n/a	n/a	3	UoHDataOffsetStream
1008.380245	0.000000	4-back	5090.330175	Steps:4 KeyPress:False Matched:False	1	4	false	false	Correct	false	n/a	n-backMarkers
1008.402946	0.004000	dropped_samples	5090.352876	Dropped 1 samples	n/a	n/a	n/a	n/a	n/a	n/a	1	UoHDataOffsetStream
1010.080563	0.000000	4-back	5092.030493	Steps:4 KeyPress:False Matched:True	0	4	false	true	Wrong	false	n/a	n-backMarkers
1010.082738	0.004000	dropped_samples	5092.032668	Dropped 1 samples	n/a	n/a	n/a	n/a	n/a	n/a	1	UoHDataOffsetStream
1010.277876	0.004000	dropped_samples	5092.227806	Dropped 1 samples	n/a	n/a	n/a	n/a	n/a	n/a	1	UoHDataOffsetStream
1010.517202	0.012000	dropped_samples	5092.467132	Dropped 3 samples	n/a	n/a	n/a	n/a	n/a	n/a	3	UoHDataOffsetStream
1011.781193	0.000000	4-back	5093.731123	Steps:4 KeyPress:False Matched:True	0	4	false	true	Wrong	false	n/a	n-backMarkers
1013.481364	0.000000	4-back	5095.431294	Steps:4 KeyPress:False Matched:False	1	4	false	false	Correct	false	n/a	n-backMarkers
1015.182230	0.000000	4-back	5097.132160	Steps:4 KeyPress:False Matched:False	1	4	false	false	Correct	false	n/a	n-backMarkers
1016.757450	0.012000	dropped_samples	5098.707380	Dropped 3 samples	n/a	n/a	n/a	n/a	n/a	n/a	3	UoHDataOffsetStream
1016.882294	0.000000	4-back	5098.832223	Steps:4 KeyPress:False Matched:False	1	4	false	false	Correct	false	n/a	n-backMarkers
1018.583370	0.000000	4-back	5100.533300	Steps:4 KeyPress:True Matched:True	1	4	true	true	Correct	false	n/a	n-backMarkers
1020.284131	0.000000	4-back	5102.234061	Steps:4 KeyPress:False Matched:False	1	4	false	false	Correct	false	n/a	n-backMarkers
1020.744857	0.004000	dropped_samples	5102.694787	Dropped 1 samples	n/a	n/a	n/a	n/a	n/a	n/a	1	UoHDataOffsetStream
1021.171529	0.012000	dropped_samples	5103.121458	Dropped 3 samples	n/a	n/a	n/a	n/a	n/a	n/a	3	UoHDataOffsetStream
1021.984830	0.000000	4-back	5103.934760	Steps:4 KeyPress:False Matched:True	0	4	false	true	Wrong	false	n/a	n-backMarkers
1022.035774	0.012000	dropped_samples	5103.985704	Dropped 3 samples	n/a	n/a	n/a	n/a	n/a	n/a	3	UoHDataOffsetStream
1023.236874	0.004000	dropped_samples	5105.186804	Dropped 1 samples	n/a	n/a	n/a	n/a	n/a	n/a	1	UoHDataOffsetStream
1023.684927	0.000000	4-back	5105.634856	Steps:4 KeyPress:False Matched:False	1	4	false	false	Correct	false	n/a	n-backMarkers
1025.155873	0.012000	dropped_samples	5107.105803	Dropped 3 samples	n/a	n/a	n/a	n/a	n/a	n/a	3	UoHDataOffsetStream
1025.385425	0.000000	4-back	5107.335355	Steps:4 KeyPress:False Matched:False	1	4	false	false	Correct	false	n/a	n-backMarkers
1025.780917	0.012000	dropped_samples	5107.730847	Dropped 3 samples	n/a	n/a	n/a	n/a	n/a	n/a	3	UoHDataOffsetStream
1027.087353	0.000000	4-back	5109.037282	Steps:4 KeyPress:False Matched:False	1	4	false	false	Correct	false	n/a	n-backMarkers
1028.788403	0.000000	4-back	5110.738333	Steps:4 KeyPress:True Matched:True	1	4	true	true	Correct	false	n/a	n-backMarkers
1030.489243	0.000000	4-back	5112.439173	Steps:4 KeyPress:False Matched:False	1	4	false	false	Correct	false	n/a	n-backMarkers
1031.586609	0.004000	dropped_samples	5113.536539	Dropped 1 samples	n/a	n/a	n/a	n/a	n/a	n/a	1	UoHDataOffsetStream
1032.190317	0.000000	4-back	5114.140247	Steps:4 KeyPress:False Matched:True	0	4	false	true	Wrong	false	n/a	n-backMarkers
1033.890444	0.000000	4-back	5115.840373	Steps:4 KeyPress:False Matched:False	1	4	false	false	Correct	false	n/a	n-backMarkers
1034.591366	0.000000	finished_n_back	5116.541296	Finished n-back	n/a	n/a	n/a	n/a	n/a	false	n/a	n-backMarkers
1046.230192	0.004000	dropped_samples	5128.180122	Dropped 1 samples	n/a	n/a	n/a	n/a	n/a	n/a	1	UoHDataOffsetStream
1047.236023	0.004000	dropped_samples	5129.185953	Dropped 1 samples	n/a	n/a	n/a	n/a	n/a	n/a	1	UoHDataOffsetStream
