onset	duration	trial_type	timestamp_lsl	marker	response_accuracy	nback_level	key_press	matched	outcome	istutorial	dropped_samples	marker_stream
6.002947	0.004000	dropped_samples	1693.336596	Dropped 1 samples	n/a	n/a	n/a	n/a	n/a	n/a	1	UoHDataOffsetStream
6.476886	0.012000	dropped_samples	1693.810535	Dropped 3 samples	n/a	n/a	n/a	n/a	n/a	n/a	3	UoHDataOffsetStream
6.610233	0.012000	dropped_samples	1693.943882	Dropped 3 samples	n/a	n/a	n/a	n/a	n/a	n/a	3	UoHDataOffsetStream
6.611553	0.008000	dropped_samples	1693.945202	Dropped 2 samples	n/a	n/a	n/a	n/a	n/a	n/a	2	UoHDataOffsetStream
6.652110	0.016000	dropped_samples	1693.985759	Dropped 4 samples	n/a	n/a	n/a	n/a	n/a	n/a	4	UoHDataOffsetStream
7.155180	0.012000	dropped_samples	1694.488830	Dropped 3 samples	n/a	n/a	n/a	n/a	n/a	n/a	3	UoHDataOffsetStream
7.252836	0.004000	dropped_samples	1694.586485	Dropped 1 samples	n/a	n/a	n/a	n/a	n/a	n/a	1	UoHDataOffsetStream
7.714277	0.012000	dropped_samples	1695.047926	Dropped 3 samples	n/a	n/a	n/a	n/a	n/a	n/a	3	UoHDataOffsetStream
7.738639	0.012000	dropped_samples	1695.072288	Dropped 3 samples	n/a	n/a	n/a	n/a	n/a	n/a	3	UoHDataOffsetStream
7.739996	0.012000	dropped_samples	1695.073645	Dropped 3 samples	n/a	n/a	n/a	n/a	n/a	n/a	3	UoHDataOffsetStream
7.780133	0.016000	dropped_samples	1695.113782	Dropped 4 samples	n/a	n/a	n/a	n/a	n/a	n/a	4	UoHDataOffsetStream
9.005675	0.012000	dropped_samples	1696.339324	Dropped 3 samples	n/a	n/a	n/a	n/a	n/a	n/a	3	UoHDataOffsetStream
9.747808	0.004000	dropped_samples	1697.081457	Dropped 1 samples	n/a	n/a	n/a	n/a	n/a	n/a	1	UoHDataOffsetStream
10.133589	0.012000	dropped_samples	1697.467238	Dropped 3 samples	n/a	n/a	n/a	n/a	n/a	n/a	3	UoHDataOffsetStream
11.740038	0.012000	dropped_samples	1699.073687	Dropped 3 samples	n/a	n/a	n/a	n/a	n/a	n/a	3	UoHDataOffsetStream
12.291973	0.012000	dropped_samples	1699.625622	Dropped 3 samples	n/a	n/a	n/a	n/a	n/a	n/a	3	UoHDataOffsetStream
13.204895	0.004000	dropped_samples	1700.538544	Dropped 1 samples	n/a	n/a	n/a	n/a	n/a	n/a	1	UoHDataOffsetStream
13.829829	0.004000	dropped_samples	1701.163478	Dropped 1 samples	n/a	n/a	n/a	n/a	n/a	n/a	1	UoHDataOffsetStream
22.009943	0.012000	dropped_samples	1709.343592	Dropped 3 samples	n/a	n/a	n/a	n/a	n/a	n/a	3	UoHDataOffsetStream
22.075106	0.012000	dropped_samples	1709.408755	Dropped 3 samples	n/a	n/a	n/a	n/a	n/a	n/a	3	UoHDataOffsetStream
22.076306	0.012000	dropped_samples	1709.409955	Dropped 3 samples	n/a	n/a	n/a	n/a	n/a	n/a	3	UoHDataOffsetStream
22.106304	0.028000	dropped_samples	1709.439953	Dropped 7 samples	n/a	n/a	n/a	n/a	n/a	n/a	7	UoHDataOffsetStream
23.859252	0.008000	dropped_samples	1711.192901	Dropped 2 samples	n/a	n/a	n/a	n/a	n/a	n/a	2	UoHDataOffsetStream
26.305503	0.012000	dropped_samples	1713.639152	Dropped 3 samples	n/a	n/a	n/a	n/a	n/a	n/a	3	UoHDataOffsetStream
26.837767	0.008000	dropped_samples	1714.171416	Dropped 2 samples	n/a	n/a	n/a	n/a	n/a	n/a	2	UoHDataOffsetStream
27.340672	0.012000	dropped_samples	1714.674321	Dropped 3 samples	n/a	n/a	n/a	n/a	n/a	n/a	3	UoHDataOffsetStream
28.941133	0.012000	dropped_samples	1716.274782	Dropped 3 samples	n/a	n/a	n/a	n/a	n/a	n/a	3	UoHDataOffsetStream
28.989974	0.012000	dropped_samples	1716.323623	Dropped 3 samples	n/a	n/a	n/a	n/a	n/a	n/a	3	UoHDataOffsetStream
28.996207	0.016000	dropped_samples	1716.329856	Dropped 4 samples	n/a	n/a	n/a	n/a	n/a	n/a	4	UoHDataOffsetStream
29.051756	0.024000	dropped_samples	1716.385406	Dropped 6 samples	n/a	n/a	n/a	n/a	n/a	n/a	6	UoHDataOffsetStream
29.137748	0.004000	dropped_samples	1716.471397	Dropped 1 samples	n/a	n/a	n/a	n/a	n/a	n/a	1	UoHDataOffsetStream
30.001829	0.012000	dropped_samples	1717.335478	Dropped 3 samples	n/a	n/a	n/a	n/a	n/a	n/a	3	UoHDataOffsetStream
30.509617	0.012000	dropped_samples	1717.843266	Dropped 3 samples	n/a	n/a	n/a	n/a	n/a	n/a	3	UoHDataOffsetStream
30.822143	0.004000	dropped_samples	1718.155793	Dropped 1 samples	n/a	n/a	n/a	n/a	n/a	n/a	1	UoHDataOffsetStream
32.257656	0.004000	dropped_samples	1719.591305	Dropped 1 samples	n/a	n/a	n/a	n/a	n/a	n/a	1	UoHDataOffsetStream
32.477389	0.004000	dropped_samples	1719.811038	Dropped 1 samples	n/a	n/a	n/a	n/a	n/a	n/a	1	UoHDataOffsetStream
33.698110	0.004000	dropped_samples	1721.031759	Dropped 1 samples	n/a	n/a	n/a	n/a	n/a	n/a	1	UoHDataOffsetStream
38.283093	0.012000	dropped_samples	1725.616742	Dropped 3 samples	n/a	n/a	n/a	n/a	n/a	n/a	3	UoHDataOffsetStream
40.036001	0.012000	dropped_samples	1727.369650	Dropped 3 samples	n/a	n/a	n/a	n/a	n/a	n/a	3	UoHDataOffsetStream
42.267508	0.004000	dropped_samples	1729.601157	Dropped 1 samples	n/a	n/a	n/a	n/a	n/a	n/a	1	UoHDataOffsetStream
44.645379	0.012000	dropped_samples	1731.979028	Dropped 3 samples	n/a	n/a	n/a	n/a	n/a	n/a	3	UoHDataOffsetStream
45.050904	0.012000	dropped_samples	1732.384554	Dropped 3 samples	n/a	n/a	n/a	n/a	n/a	n/a	3	UoHDataOffsetStream
49.035111	0.012000	dropped_samples	1736.368760	Dropped 3 samples	n/a	n/a	n/a	n/a	n/a	n/a	3	UoHDataOffsetStream
49.274339	0.008000	dropped_samples	1736.607988	Dropped 2 samples	n/a	n/a	n/a	n/a	n/a	n/a	2	UoHDataOffsetStream
50.885698	0.012000	dropped_samples	1738.219347	Dropped 3 samples	n/a	n/a	n/a	n/a	n/a	n/a	3	UoHDataOffsetStream
51.603461	0.012000	dropped_samples	1738.937110	Dropped 3 samples	n/a	n/a	n/a	n/a	n/a	n/a	3	UoHDataOffsetStream
53.886731	0.000000	started_tutorial_n_back	1741.220380	Started tutorial n-back	n/a	n/a	n/a	n/a	n/a	true	n/a	n-backMarkers
54.772407	0.004000	dropped_samples	1742.106056	Dropped 1 samples	n/a	n/a	n/a	n/a	n/a	n/a	1	UoHDataOffsetStream
57.629042	0.004000	dropped_samples	1744.962692	Dropped 1 samples	n/a	n/a	n/a	n/a	n/a	n/a	1	UoHDataOffsetStream
57.843751	0.012000	dropped_samples	1745.177400	Dropped 3 samples	n/a	n/a	n/a	n/a	n/a	n/a	3	UoHDataOffsetStream
62.732475	0.012000	dropped_samples	1750.066124	Dropped 3 samples	n/a	n/a	n/a	n/a	n/a	n/a	3	UoHDataOffsetStream
65.089836	0.008000	dropped_samples	1752.423485	Dropped 2 samples	n/a	n/a	n/a	n/a	n/a	n/a	2	UoHDataOffsetStream
65.451153	0.012000	dropped_samples	1752.784802	Dropped 3 samples	n/a	n/a	n/a	n/a	n/a	n/a	3	UoHDataOffsetStream
68.307620	0.012000	dropped_samples	1755.641270	Dropped 3 samples	n/a	n/a	n/a	n/a	n/a	n/a	3	UoHDataOffsetStream
68.478518	0.004000	dropped_samples	1755.812167	Dropped 1 samples	n/a	n/a	n/a	n/a	n/a	n/a	1	UoHDataOffsetStream
70.446299	0.012000	dropped_samples	1757.779948	Dropped 3 samples	n/a	n/a	n/a	n/a	n/a	n/a	3	UoHDataOffsetStream
72.316412	0.004000	dropped_samples	1759.650061	Dropped 1 samples	n/a	n/a	n/a	n/a	n/a	n/a	1	UoHDataOffsetStream
73.805665	0.012000	dropped_samples	1761.139314	Dropped 3 samples	n/a	n/a	n/a	n/a	n/a	n/a	3	UoHDataOffsetStream
74.044931	0.004000	dropped_samples	1761.378580	Dropped 1 samples	n/a	n/a	n/a	n/a	n/a	n/a	1	UoHDataOffsetStream
77.424642	0.012000	dropped_samples	1764.758291	Dropped 3 samples	n/a	n/a	n/a	n/a	n/a	n/a	3	UoHDataOffsetStream
81.510785	0.012000	dropped_samples	1768.844434	Dropped 3 samples	n/a	n/a	n/a	n/a	n/a	n/a	3	UoHDataOffsetStream
83.141619	0.012000	dropped_samples	1770.475268	Dropped 3 samples	n/a	n/a	n/a	n/a	n/a	n/a	3	UoHDataOffsetStream
84.772498	0.012000	dropped_samples	1772.106147	Dropped 3 samples	n/a	n/a	n/a	n/a	n/a	n/a	3	UoHDataOffsetStream
85.397482	0.012000	dropped_samples	1772.731131	Dropped 3 samples	n/a	n/a	n/a	n/a	n/a	n/a	3	UoHDataOffsetStream
88.756892	0.012000	dropped_samples	1776.090541	Dropped 3 samples	n/a	n/a	n/a	n/a	n/a	n/a	3	UoHDataOffsetStream
88.971745	0.012000	dropped_samples	1776.305394	Dropped 3 samples	n/a	n/a	n/a	n/a	n/a	n/a	3	UoHDataOffsetStream
93.029369	0.004000	dropped_samples	1780.363018	Dropped 1 samples	n/a	n/a	n/a	n/a	n/a	n/a	1	UoHDataOffsetStream
95.114372	0.004000	dropped_samples	1782.448021	Dropped 1 samples	n/a	n/a	n/a	n/a	n/a	n/a	1	UoHDataOffsetStream
97.013758	0.004000	dropped_samples	1784.347408	Dropped 1 samples	n/a	n/a	n/a	n/a	n/a	n/a	1	UoHDataOffsetStream
101.354639	0.012000	dropped_samples	1788.688288	Dropped 3 samples	n/a	n/a	n/a	n/a	n/a	n/a	3	UoHDataOffsetStream
101.525615	0.012000	dropped_samples	1788.859264	Dropped 3 samples	n/a	n/a	n/a	n/a	n/a	n/a	3	UoHDataOffsetStream
102.052853	0.008000	dropped_samples	1789.386503	Dropped 2 samples	n/a	n/a	n/a	n/a	n/a	n/a	2	UoHDataOffsetStream
103.799549	0.012000	dropped_samples	1791.133199	Dropped 3 samples	n/a	n/a	n/a	n/a	n/a	n/a	3	UoHDataOffsetStream
108.747211	0.016000	dropped_samples	1796.080860	Dropped 4 samples	n/a	n/a	n/a	n/a	n/a	n/a	4	UoHDataOffsetStream
109.521223	0.004000	dropped_samples	1796.854872	Dropped 1 samples	n/a	n/a	n/a	n/a	n/a	n/a	1	UoHDataOffsetStream
111.603975	0.012000	dropped_samples	1798.937625	Dropped 3 samples	n/a	n/a	n/a	n/a	n/a	n/a	3	UoHDataOffsetStream
113.883969	0.004000	dropped_samples	1801.217618	Dropped 1 samples	n/a	n/a	n/a	n/a	n/a	n/a	1	UoHDataOffsetStream
114.342925	0.004000	dropped_samples	1801.676574	Dropped 1 samples	n/a	n/a	n/a	n/a	n/a	n/a	1	UoHDataOffsetStream
117.150554	0.004000	dropped_samples	1804.484203	Dropped 1 samples	n/a	n/a	n/a	n/a	n/a	n/a	1	UoHDataOffsetStream
117.316638	0.004000	dropped_samples	1804.650287	Dropped 1 samples	n/a	n/a	n/a	n/a	n/a	n/a	1	UoHDataOffsetStream
117.751131	0.012000	dropped_samples	1805.084781	Dropped 3 samples	n/a	n/a	n/a	n/a	n/a	n/a	3	UoHDataOffsetStream
118.229846	0.012000	dropped_samples	1805.563495	Dropped 3 samples	n/a	n/a	n/a	n/a	n/a	n/a	3	UoHDataOffsetStream
120.896364	0.000000	1-back	1808.230013	Steps:1 KeyPress:False Matched:False	1	1	false	false	Correct	true	n/a	n-backMarkers
122.597907	0.000000	1-back	1809.931556	Steps:1 KeyPress:True Matched:False	0	1	true	false	Wrong	true	n/a	n-backMarkers
124.298355	0.000000	1-back	1811.632004	Steps:1 KeyPress:False Matched:False	1	1	false	false	Correct	true	n/a	n-backMarkers
124.543307	0.004000	dropped_samples	1811.876956	Dropped 1 samples	n/a	n/a	n/a	n/a	n/a	n/a	1	UoHDataOffsetStream
124.709151	0.008000	dropped_samples	1812.042801	Dropped 2 samples	n/a	n/a	n/a	n/a	n/a	n/a	2	UoHDataOffsetStream
125.999761	0.000000	1-back	1813.333410	Steps:1 KeyPress:False Matched:False	1	1	false	false	Correct	true	n/a	n-backMarkers
127.700894	0.000000	1-back	1815.034543	Steps:1 KeyPress:False Matched:True	0	1	false	true	Wrong	true	n/a	n-backMarkers
129.401887	0.000000	1-back	1816.735536	Steps:1 KeyPress:False Matched:False	1	1	false	false	Correct	true	n/a	n-backMarkers
131.047109	0.012000	dropped_samples	1818.380758	Dropped 3 samples	n/a	n/a	n/a	n/a	n/a	n/a	3	UoHDataOffsetStream
131.102452	0.000000	1-back	1818.436102	Steps:1 KeyPress:True Matched:False	0	1	true	false	Wrong	true	n/a	n-backMarkers
132.802794	0.000000	1-back	1820.136443	Steps:1 KeyPress:False Matched:False	1	1	false	false	Correct	true	n/a	n-backMarkers
133.635003	0.012000	dropped_samples	1820.968652	Dropped 3 samples	n/a	n/a	n/a	n/a	n/a	n/a	3	UoHDataOffsetStream
134.020772	0.008000	dropped_samples	1821.354421	Dropped 2 samples	n/a	n/a	n/a	n/a	n/a	n/a	2	UoHDataOffsetStream
134.504368	0.000000	1-back	1821.838017	Steps:1 KeyPress:True Matched:False	0	1	true	false	Wrong	true	n/a	n-backMarkers
135.174108	0.004000	dropped_samples	1822.507758	Dropped 1 samples	n/a	n/a	n/a	n/a	n/a	n/a	1	UoHDataOffsetStream
135.461146	0.004000	dropped_samples	1822.794795	Dropped 1 samples	n/a	n/a	n/a	n/a	n/a	n/a	1	UoHDataOffsetStream
135.675998	0.012000	dropped_samples	1823.009648	Dropped 3 samples	n/a	n/a	n/a	n/a	n/a	n/a	3	UoHDataOffsetStream
136.204206	0.000000	1-back	1823.537855	Steps:1 KeyPress:False Matched:False	1	1	false	false	Correct	true	n/a	n-backMarkers
137.619366	0.012000	dropped_samples	1824.953015	Dropped 3 samples	n/a	n/a	n/a	n/a	n/a	n/a	3	UoHDataOffsetStream
137.904380	0.000000	1-back	1825.238029	Steps:1 KeyPress:True Matched:False	0	1	true	false	Wrong	true	n/a	n-backMarkers
138.844975	0.004000	dropped_samples	1826.178624	Dropped 1 samples	n/a	n/a	n/a	n/a	n/a	n/a	1	UoHDataOffsetStream
139.606001	0.000000	1-back	1826.939650	Steps:1 KeyPress:False Matched:False	1	1	false	false	Correct	true	n/a	n-backMarkers
139.782478	0.012000	dropped_samples	1827.116127	Dropped 3 samples	n/a	n/a	n/a	n/a	n/a	n/a	3	UoHDataOffsetStream
141.307249	0.000000	1-back	1828.640898	Steps:1 KeyPress:True Matched:False	0	1	true	false	Wrong	true	n/a	n-backMarkers
141.799103	0.012000	dropped_samples	1829.132752	Dropped 3 samples	n/a	n/a	n/a	n/a	n/a	n/a	3	UoHDataOffsetStream
142.590039	0.012000	dropped_samples	1829.923688	Dropped 3 samples	n/a	n/a	n/a	n/a	n/a	n/a	3	UoHDataOffsetStream
143.008094	0.000000	1-back	1830.341744	Steps:1 KeyPress:False Matched:True	0	1	false	true	Wrong	true	n/a	n-backMarkers
144.582254	0.004000	dropped_samples	1831.915903	Dropped 1 samples	n/a	n/a	n/a	n/a	n/a	n/a	1	UoHDataOffsetStream
144.708319	0.000000	1-back	1832.041968	Steps:1 KeyPress:False Matched:True	0	1	false	true	Wrong	true	n/a	n-backMarkers
146.115489	0.012000	dropped_samples	1833.449138	Dropped 3 samples	n/a	n/a	n/a	n/a	n/a	n/a	3	UoHDataOffsetStream
146.408785	0.000000	1-back	1833.742434	Steps:1 KeyPress:False Matched:False	1	1	false	false	Correct	true	n/a	n-backMarkers
147.990517	0.004000	dropped_samples	1835.324166	Dropped 1 samples	n/a	n/a	n/a	n/a	n/a	n/a	1	UoHDataOffsetStream
148.110062	0.000000	1-back	1835.443711	Steps:1 KeyPress:False Matched:False	1	1	false	false	Correct	true	n/a	n-backMarkers
149.810995	0.000000	1-back	1837.144644	Steps:1 KeyPress:True Matched:False	0	1	true	false	Wrong	true	n/a	n-backMarkers
150.436810	0.004000	dropped_samples	1837.770459	Dropped 1 samples	n/a	n/a	n/a	n/a	n/a	n/a	1	UoHDataOffsetStream
150.651673	0.012000	dropped_samples	1837.985322	Dropped 3 samples	n/a	n/a	n/a	n/a	n/a	n/a	3	UoHDataOffsetStream
151.374273	0.008000	dropped_samples	1838.707923	Dropped 2 samples	n/a	n/a	n/a	n/a	n/a	n/a	2	UoHDataOffsetStream
151.512099	0.000000	1-back	1838.845749	Steps:1 KeyPress:False Matched:False	1	1	false	false	Correct	true	n/a	n-backMarkers
153.214035	0.000000	1-back	1840.547684	Steps:1 KeyPress:True Matched:False	0	1	true	false	Wrong	true	n/a	n-backMarkers
154.011136	0.012000	dropped_samples	1841.344785	Dropped 3 samples	n/a	n/a	n/a	n/a	n/a	n/a	3	UoHDataOffsetStream
154.181886	0.012000	dropped_samples	1841.515536	Dropped 3 samples	n/a	n/a	n/a	n/a	n/a	n/a	3	UoHDataOffsetStream
154.915796	0.000000	1-back	1842.249445	Steps:1 KeyPress:False Matched:True	0	1	false	true	Wrong	true	n/a	n-backMarkers
154.958634	0.012000	dropped_samples	1842.292284	Dropped 3 samples	n/a	n/a	n/a	n/a	n/a	n/a	3	UoHDataOffsetStream
154.998140	0.012000	dropped_samples	1842.331789	Dropped 3 samples	n/a	n/a	n/a	n/a	n/a	n/a	3	UoHDataOffsetStream
157.548518	0.012000	dropped_samples	1844.882167	Dropped 3 samples	n/a	n/a	n/a	n/a	n/a	n/a	3	UoHDataOffsetStream
159.079413	0.012000	dropped_samples	1846.413063	Dropped 3 samples	n/a	n/a	n/a	n/a	n/a	n/a	3	UoHDataOffsetStream
163.632957	0.000000	2-back	1850.966606	Steps:2 KeyPress:False Matched:False	1	2	false	false	Correct	true	n/a	n-backMarkers
164.523906	0.004000	dropped_samples	1851.857555	Dropped 1 samples	n/a	n/a	n/a	n/a	n/a	n/a	1	UoHDataOffsetStream
165.334020	0.000000	2-back	1852.667669	Steps:2 KeyPress:False Matched:False	1	2	false	false	Correct	true	n/a	n-backMarkers
166.398808	0.004000	dropped_samples	1853.732457	Dropped 1 samples	n/a	n/a	n/a	n/a	n/a	n/a	1	UoHDataOffsetStream
166.755339	0.012000	dropped_samples	1854.088988	Dropped 3 samples	n/a	n/a	n/a	n/a	n/a	n/a	3	UoHDataOffsetStream
167.035230	0.000000	2-back	1854.368879	Steps:2 KeyPress:False Matched:False	1	2	false	false	Correct	true	n/a	n-backMarkers
168.342126	0.004000	dropped_samples	1855.675775	Dropped 1 samples	n/a	n/a	n/a	n/a	n/a	n/a	1	UoHDataOffsetStream
168.735344	0.000000	2-back	1856.068993	Steps:2 KeyPress:False Matched:False	1	2	false	false	Correct	true	n/a	n-backMarkers
168.967222	0.004000	dropped_samples	1856.300872	Dropped 1 samples	n/a	n/a	n/a	n/a	n/a	n/a	1	UoHDataOffsetStream
169.347979	0.008000	dropped_samples	1856.681628	Dropped 2 samples	n/a	n/a	n/a	n/a	n/a	n/a	2	UoHDataOffsetStream
170.435892	0.000000	2-back	1857.769541	Steps:2 KeyPress:False Matched:False	1	2	false	false	Correct	true	n/a	n-backMarkers
171.389015	0.012000	dropped_samples	1858.722664	Dropped 3 samples	n/a	n/a	n/a	n/a	n/a	n/a	3	UoHDataOffsetStream
172.137610	0.000000	2-back	1859.471260	Steps:2 KeyPress:True Matched:True	1	2	true	true	Correct	true	n/a	n-backMarkers
173.837936	0.000000	2-back	1861.171585	Steps:2 KeyPress:False Matched:True	0	2	false	true	Wrong	true	n/a	n-backMarkers
174.079443	0.012000	dropped_samples	1861.413093	Dropped 3 samples	n/a	n/a	n/a	n/a	n/a	n/a	3	UoHDataOffsetStream
174.460333	0.004000	dropped_samples	1861.793982	Dropped 1 samples	n/a	n/a	n/a	n/a	n/a	n/a	1	UoHDataOffsetStream
174.894866	0.012000	dropped_samples	1862.228515	Dropped 3 samples	n/a	n/a	n/a	n/a	n/a	n/a	3	UoHDataOffsetStream
175.538883	0.000000	2-back	1862.872532	Steps:2 KeyPress:False Matched:False	1	2	false	false	Correct	true	n/a	n-backMarkers
176.047264	0.004000	dropped_samples	1863.380914	Dropped 1 samples	n/a	n/a	n/a	n/a	n/a	n/a	1	UoHDataOffsetStream
177.223971	0.012000	dropped_samples	1864.557620	Dropped 3 samples	n/a	n/a	n/a	n/a	n/a	n/a	3	UoHDataOffsetStream
177.240358	0.000000	2-back	1864.574007	Steps:2 KeyPress:False Matched:False	1	2	false	false	Correct	true	n/a	n-backMarkers
178.854906	0.004000	dropped_samples	1866.188555	Dropped 1 samples	n/a	n/a	n/a	n/a	n/a	n/a	1	UoHDataOffsetStream
178.942011	0.000000	2-back	1866.275660	Steps:2 KeyPress:False Matched:False	1	2	false	false	Correct	true	n/a	n-backMarkers
179.499422	0.012000	dropped_samples	1866.833071	Dropped 3 samples	n/a	n/a	n/a	n/a	n/a	n/a	3	UoHDataOffsetStream
180.643178	0.000000	2-back	1867.976827	Steps:2 KeyPress:False Matched:False	1	2	false	false	Correct	true	n/a	n-backMarkers
181.447658	0.012000	dropped_samples	1868.781307	Dropped 3 samples	n/a	n/a	n/a	n/a	n/a	n/a	3	UoHDataOffsetStream
182.067906	0.012000	dropped_samples	1869.401556	Dropped 3 samples	n/a	n/a	n/a	n/a	n/a	n/a	3	UoHDataOffsetStream
182.344346	0.000000	2-back	1869.677995	Steps:2 KeyPress:False Matched:True	0	2	false	true	Wrong	true	n/a	n-backMarkers
184.044214	0.000000	2-back	1871.377863	Steps:2 KeyPress:False Matched:False	1	2	false	false	Correct	true	n/a	n-backMarkers
185.646880	0.012000	dropped_samples	1872.980530	Dropped 3 samples	n/a	n/a	n/a	n/a	n/a	n/a	3	UoHDataOffsetStream
185.744830	0.000000	2-back	1873.078480	Steps:2 KeyPress:False Matched:True	0	2	false	true	Wrong	true	n/a	n-backMarkers
187.375408	0.004000	dropped_samples	1874.709058	Dropped 1 samples	n/a	n/a	n/a	n/a	n/a	n/a	1	UoHDataOffsetStream
187.445356	0.000000	2-back	1874.779005	Steps:2 KeyPress:False Matched:False	1	2	false	false	Correct	true	n/a	n-backMarkers
188.283596	0.004000	dropped_samples	1875.617245	Dropped 1 samples	n/a	n/a	n/a	n/a	n/a	n/a	1	UoHDataOffsetStream
189.146095	0.000000	2-back	1876.479744	Steps:2 KeyPress:False Matched:False	1	2	false	false	Correct	true	n/a	n-backMarkers
189.582585	0.012000	dropped_samples	1876.916234	Dropped 3 samples	n/a	n/a	n/a	n/a	n/a	n/a	3	UoHDataOffsetStream
189.846146	0.012000	dropped_samples	1877.179795	Dropped 3 samples	n/a	n/a	n/a	n/a	n/a	n/a	3	UoHDataOffsetStream
190.846424	0.000000	2-back	1878.180073	Steps:2 KeyPress:True Matched:False	0	2	true	false	Wrong	true	n/a	n-backMarkers
192.547217	0.000000	2-back	1879.880867	Steps:2 KeyPress:False Matched:False	1	2	false	false	Correct	true	n/a	n-backMarkers
193.732859	0.012000	dropped_samples	1881.066508	Dropped 3 samples	n/a	n/a	n/a	n/a	n/a	n/a	3	UoHDataOffsetStream
194.248131	0.000000	2-back	1881.581780	Steps:2 KeyPress:False Matched:False	1	2	false	false	Correct	true	n/a	n-backMarkers
194.860772	0.004000	dropped_samples	1882.194421	Dropped 1 samples	n/a	n/a	n/a	n/a	n/a	n/a	1	UoHDataOffsetStream
195.939939	0.012000	dropped_samples	1883.273588	Dropped 3 samples	n/a	n/a	n/a	n/a	n/a	n/a	3	UoHDataOffsetStream
195.948908	0.000000	2-back	1883.282557	Steps:2 KeyPress:True Matched:False	0	2	true	false	Wrong	true	n/a	n-backMarkers
197.214290	0.012000	dropped_samples	1884.547939	Dropped 3 samples	n/a	n/a	n/a	n/a	n/a	n/a	3	UoHDataOffsetStream
197.696274	0.012000	dropped_samples	1885.029923	Dropped 3 samples	n/a	n/a	n/a	n/a	n/a	n/a	3	UoHDataOffsetStream
197.717291	0.012000	dropped_samples	1885.050940	Dropped 3 samples	n/a	n/a	n/a	n/a	n/a	n/a	3	UoHDataOffsetStream
197.953256	0.012000	dropped_samples	1885.286905	Dropped 3 samples	n/a	n/a	n/a	n/a	n/a	n/a	3	UoHDataOffsetStream
198.293415	0.012000	dropped_samples	1885.627064	Dropped 3 samples	n/a	n/a	n/a	n/a	n/a	n/a	3	UoHDataOffsetStream
199.899919	0.004000	dropped_samples	1887.233568	Dropped 1 samples	n/a	n/a	n/a	n/a	n/a	n/a	1	UoHDataOffsetStream
200.334414	0.028000	dropped_samples	1887.668064	Dropped 7 samples	n/a	n/a	n/a	n/a	n/a	n/a	7	UoHDataOffsetStream
200.598099	0.012000	dropped_samples	1887.931748	Dropped 3 samples	n/a	n/a	n/a	n/a	n/a	n/a	3	UoHDataOffsetStream
201.584404	0.012000	dropped_samples	1888.918053	Dropped 3 samples	n/a	n/a	n/a	n/a	n/a	n/a	3	UoHDataOffsetStream
204.648170	0.000000	3-back	1891.981819	Steps:3 KeyPress:False Matched:False	1	3	false	false	Correct	true	n/a	n-backMarkers
205.300280	0.012000	dropped_samples	1892.633930	Dropped 3 samples	n/a	n/a	n/a	n/a	n/a	n/a	3	UoHDataOffsetStream
206.349294	0.000000	3-back	1893.682943	Steps:3 KeyPress:False Matched:False	1	3	false	false	Correct	true	n/a	n-backMarkers
206.692002	0.012000	dropped_samples	1894.025651	Dropped 3 samples	n/a	n/a	n/a	n/a	n/a	n/a	3	UoHDataOffsetStream
208.050155	0.000000	3-back	1895.383804	Steps:3 KeyPress:False Matched:False	1	3	false	false	Correct	true	n/a	n-backMarkers
209.752574	0.000000	3-back	1897.086224	Steps:3 KeyPress:False Matched:False	1	3	false	false	Correct	true	n/a	n-backMarkers
210.100411	0.012000	dropped_samples	1897.434061	Dropped 3 samples	n/a	n/a	n/a	n/a	n/a	n/a	3	UoHDataOffsetStream
211.252417	0.012000	dropped_samples	1898.586066	Dropped 3 samples	n/a	n/a	n/a	n/a	n/a	n/a	3	UoHDataOffsetStream
211.453885	0.000000	3-back	1898.787534	Steps:3 KeyPress:False Matched:False	1	3	false	false	Correct	true	n/a	n-backMarkers
213.155306	0.000000	3-back	1900.488955	Steps:3 KeyPress:False Matched:False	1	3	false	false	Correct	true	n/a	n-backMarkers
213.796411	0.008000	dropped_samples	1901.130060	Dropped 2 samples	n/a	n/a	n/a	n/a	n/a	n/a	2	UoHDataOffsetStream
214.856039	0.000000	3-back	1902.189688	Steps:3 KeyPress:False Matched:False	1	3	false	false	Correct	true	n/a	n-backMarkers
216.556045	0.000000	3-back	1903.889695	Steps:3 KeyPress:False Matched:True	0	3	false	true	Wrong	true	n/a	n-backMarkers
217.902887	0.012000	dropped_samples	1905.236536	Dropped 3 samples	n/a	n/a	n/a	n/a	n/a	n/a	3	UoHDataOffsetStream
218.256445	0.000000	3-back	1905.590094	Steps:3 KeyPress:False Matched:False	1	3	false	false	Correct	true	n/a	n-backMarkers
219.030898	0.004000	dropped_samples	1906.364547	Dropped 1 samples	n/a	n/a	n/a	n/a	n/a	n/a	1	UoHDataOffsetStream
219.957826	0.000000	3-back	1907.291475	Steps:3 KeyPress:False Matched:False	1	3	false	false	Correct	true	n/a	n-backMarkers
221.189020	0.008000	dropped_samples	1908.522669	Dropped 2 samples	n/a	n/a	n/a	n/a	n/a	n/a	2	UoHDataOffsetStream
221.659122	0.000000	3-back	1908.992772	Steps:3 KeyPress:True Matched:False	0	3	true	false	Wrong	true	n/a	n-backMarkers
221.740787	0.012000	dropped_samples	1909.074436	Dropped 3 samples	n/a	n/a	n/a	n/a	n/a	n/a	3	UoHDataOffsetStream
223.360871	0.000000	3-back	1910.694520	Steps:3 KeyPress:False Matched:False	1	3	false	false	Correct	true	n/a	n-backMarkers
224.431219	0.004000	dropped_samples	1911.764868	Dropped 1 samples	n/a	n/a	n/a	n/a	n/a	n/a	1	UoHDataOffsetStream
225.060993	0.000000	3-back	1912.394642	Steps:3 KeyPress:False Matched:True	0	3	false	true	Wrong	true	n/a	n-backMarkers
226.761745	0.000000	3-back	1914.095394	Steps:3 KeyPress:False Matched:False	1	3	false	false	Correct	true	n/a	n-backMarkers
226.773969	0.012000	dropped_samples	1914.107618	Dropped 3 samples	n/a	n/a	n/a	n/a	n/a	n/a	3	UoHDataOffsetStream
228.462966	0.000000	3-back	1915.796615	Steps:3 KeyPress:True Matched:False	0	3	true	false	Wrong	true	n/a	n-backMarkers
230.164270	0.000000	3-back	1917.497919	Steps:3 KeyPress:False Matched:True	0	3	false	true	Wrong	true	n/a	n-backMarkers
230.188131	0.012000	dropped_samples	1917.521780	Dropped 3 samples	n/a	n/a	n/a	n/a	n/a	n/a	3	UoHDataOffsetStream
230.983946	0.004000	dropped_samples	1918.317595	Dropped 1 samples	n/a	n/a	n/a	n/a	n/a	n/a	1	UoHDataOffsetStream
231.865819	0.000000	3-back	1919.199468	Steps:3 KeyPress:False Matched:False	1	3	false	false	Correct	true	n/a	n-backMarkers
233.566195	0.000000	3-back	1920.899844	Steps:3 KeyPress:False Matched:False	1	3	false	false	Correct	true	n/a	n-backMarkers
234.558423	0.004000	dropped_samples	1921.892073	Dropped 1 samples	n/a	n/a	n/a	n/a	n/a	n/a	1	UoHDataOffsetStream
235.267753	0.000000	3-back	1922.601402	Steps:3 KeyPress:False Matched:True	0	3	false	true	Wrong	true	n/a	n-backMarkers
236.672426	0.012000	dropped_samples	1924.006075	Dropped 3 samples	n/a	n/a	n/a	n/a	n/a	n/a	3	UoHDataOffsetStream
236.840423	0.012000	dropped_samples	1924.174072	Dropped 3 samples	n/a	n/a	n/a	n/a	n/a	n/a	3	UoHDataOffsetStream
236.968750	0.000000	3-back	1924.302399	Steps:3 KeyPress:True Matched:False	0	3	true	false	Wrong	true	n/a	n-backMarkers
239.175506	0.012000	dropped_samples	1926.509155	Dropped 3 samples	n/a	n/a	n/a	n/a	n/a	n/a	3	UoHDataOffsetStream
239.407050	0.004000	dropped_samples	1926.740699	Dropped 1 samples	n/a	n/a	n/a	n/a	n/a	n/a	1	UoHDataOffsetStream
239.816955	0.012000	dropped_samples	1927.150604	Dropped 3 samples	n/a	n/a	n/a	n/a	n/a	n/a	3	UoHDataOffsetStream
240.412755	0.004000	dropped_samples	1927.746405	Dropped 1 samples	n/a	n/a	n/a	n/a	n/a	n/a	1	UoHDataOffsetStream
241.926477	0.004000	dropped_samples	1929.260126	Dropped 1 samples	n/a	n/a	n/a	n/a	n/a	n/a	1	UoHDataOffsetStream
243.796504	0.004000	dropped_samples	1931.130153	Dropped 1 samples	n/a	n/a	n/a	n/a	n/a	n/a	1	UoHDataOffsetStream
245.660873	0.000000	4-back	1932.994522	Steps:4 KeyPress:False Matched:True	0	4	false	true	Wrong	true	n/a	n-backMarkers
247.087526	0.004000	dropped_samples	1934.421175	Dropped 1 samples	n/a	n/a	n/a	n/a	n/a	n/a	1	UoHDataOffsetStream
247.360980	0.000000	4-back	1934.694629	Steps:4 KeyPress:False Matched:False	1	4	false	false	Correct	true	n/a	n-backMarkers
248.527976	0.004000	dropped_samples	1935.861625	Dropped 1 samples	n/a	n/a	n/a	n/a	n/a	n/a	1	UoHDataOffsetStream
249.062040	0.000000	4-back	1936.395689	Steps:4 KeyPress:False Matched:False	1	4	false	false	Correct	true	n/a	n-backMarkers
250.762618	0.000000	4-back	1938.096268	Steps:4 KeyPress:False Matched:False	1	4	false	false	Correct	true	n/a	n-backMarkers
251.699795	0.004000	dropped_samples	1939.033444	Dropped 1 samples	n/a	n/a	n/a	n/a	n/a	n/a	1	UoHDataOffsetStream
251.911869	0.012000	dropped_samples	1939.245518	Dropped 3 samples	n/a	n/a	n/a	n/a	n/a	n/a	3	UoHDataOffsetStream
252.464206	0.000000	4-back	1939.797855	Steps:4 KeyPress:False Matched:True	0	4	false	true	Wrong	true	n/a	n-backMarkers
252.512355	0.012000	dropped_samples	1939.846004	Dropped 3 samples	n/a	n/a	n/a	n/a	n/a	n/a	3	UoHDataOffsetStream
253.542609	0.004000	dropped_samples	1940.876258	Dropped 1 samples	n/a	n/a	n/a	n/a	n/a	n/a	1	UoHDataOffsetStream
254.166207	0.000000	4-back	1941.499856	Steps:4 KeyPress:False Matched:True	0	4	false	true	Wrong	true	n/a	n-backMarkers
255.867176	0.000000	4-back	1943.200825	Steps:4 KeyPress:False Matched:False	1	4	false	false	Correct	true	n/a	n-backMarkers
255.988982	0.012000	dropped_samples	1943.322631	Dropped 3 samples	n/a	n/a	n/a	n/a	n/a	n/a	3	UoHDataOffsetStream
256.496738	0.008000	dropped_samples	1943.830387	Dropped 2 samples	n/a	n/a	n/a	n/a	n/a	n/a	2	UoHDataOffsetStream
257.569042	0.000000	4-back	1944.902691	Steps:4 KeyPress:False Matched:False	1	4	false	false	Correct	true	n/a	n-backMarkers
257.649085	0.004000	dropped_samples	1944.982734	Dropped 1 samples	n/a	n/a	n/a	n/a	n/a	n/a	1	UoHDataOffsetStream
259.270546	0.000000	4-back	1946.604196	Steps:4 KeyPress:True Matched:False	0	4	true	false	Wrong	true	n/a	n-backMarkers
260.971137	0.000000	4-back	1948.304786	Steps:4 KeyPress:False Matched:True	0	4	false	true	Wrong	true	n/a	n-backMarkers
262.412099	0.004000	dropped_samples	1949.745748	Dropped 1 samples	n/a	n/a	n/a	n/a	n/a	n/a	1	UoHDataOffsetStream
262.672279	0.000000	4-back	1950.005929	Steps:4 KeyPress:False Matched:True	0	4	false	true	Wrong	true	n/a	n-backMarkers
262.854208	0.012000	dropped_samples	1950.187857	Dropped 3 samples	n/a	n/a	n/a	n/a	n/a	n/a	3	UoHDataOffsetStream
263.215527	0.004000	dropped_samples	1950.549176	Dropped 1 samples	n/a	n/a	n/a	n/a	n/a	n/a	1	UoHDataOffsetStream
264.196968	0.008000	dropped_samples	1951.530617	Dropped 2 samples	n/a	n/a	n/a	n/a	n/a	n/a	2	UoHDataOffsetStream
264.372156	0.000000	4-back	1951.705805	Steps:4 KeyPress:False Matched:False	1	4	false	false	Correct	true	n/a	n-backMarkers
264.729476	0.012000	dropped_samples	1952.063125	Dropped 3 samples	n/a	n/a	n/a	n/a	n/a	n/a	3	UoHDataOffsetStream
264.773141	0.008000	dropped_samples	1952.106790	Dropped 2 samples	n/a	n/a	n/a	n/a	n/a	n/a	2	UoHDataOffsetStream
265.373711	0.012000	dropped_samples	1952.707360	Dropped 3 samples	n/a	n/a	n/a	n/a	n/a	n/a	3	UoHDataOffsetStream
265.520244	0.008000	dropped_samples	1952.853893	Dropped 2 samples	n/a	n/a	n/a	n/a	n/a	n/a	2	UoHDataOffsetStream
265.808298	0.004000	dropped_samples	1953.141948	Dropped 1 samples	n/a	n/a	n/a	n/a	n/a	n/a	1	UoHDataOffsetStream
266.073033	0.000000	4-back	1953.406683	Steps:4 KeyPress:False Matched:False	1	4	false	false	Correct	true	n/a	n-backMarkers
267.365921	0.004000	dropped_samples	1954.699570	Dropped 1 samples	n/a	n/a	n/a	n/a	n/a	n/a	1	UoHDataOffsetStream
267.653973	0.008000	dropped_samples	1954.987622	Dropped 2 samples	n/a	n/a	n/a	n/a	n/a	n/a	2	UoHDataOffsetStream
267.774206	0.000000	4-back	1955.107855	Steps:4 KeyPress:False Matched:False	1	4	false	false	Correct	true	n/a	n-backMarkers
269.475070	0.000000	4-back	1956.808719	Steps:4 KeyPress:False Matched:True	0	4	false	true	Wrong	true	n/a	n-backMarkers
269.695041	0.004000	dropped_samples	1957.028690	Dropped 1 samples	n/a	n/a	n/a	n/a	n/a	n/a	1	UoHDataOffsetStream
270.632521	0.004000	dropped_samples	1957.966170	Dropped 1 samples	n/a	n/a	n/a	n/a	n/a	n/a	1	UoHDataOffsetStream
271.177029	0.000000	4-back	1958.510679	Steps:4 KeyPress:False Matched:True	0	4	false	true	Wrong	true	n/a	n-backMarkers
272.878035	0.000000	4-back	1960.211684	Steps:4 KeyPress:False Matched:False	1	4	false	false	Correct	true	n/a	n-backMarkers
274.578317	0.000000	4-back	1961.911966	Steps:4 KeyPress:False Matched:False	1	4	false	false	Correct	true	n/a	n-backMarkers
276.279252	0.000000	4-back	1963.612902	Steps:4 KeyPress:True Matched:False	0	4	true	false	Wrong	true	n/a	n-backMarkers
276.653078	0.012000	dropped_samples	1963.986727	Dropped 3 samples	n/a	n/a	n/a	n/a	n/a	n/a	3	UoHDataOffsetStream
277.829774	0.012000	dropped_samples	1965.163423	Dropped 3 samples	n/a	n/a	n/a	n/a	n/a	n/a	3	UoHDataOffsetStream
277.980444	0.000000	4-back	1965.314093	Steps:4 KeyPress:False Matched:True	0	4	false	true	Wrong	true	n/a	n-backMarkers
278.669631	0.012000	dropped_samples	1966.003280	Dropped 3 samples	n/a	n/a	n/a	n/a	n/a	n/a	3	UoHDataOffsetStream
278.685114	0.000000	finished_tutorial_n_back	1966.018763	Finished tutorial n-back	n/a	n/a	n/a	n/a	n/a	true	n/a	n-backMarkers
279.773206	0.012000	dropped_samples	1967.106855	Dropped 3 samples	n/a	n/a	n/a	n/a	n/a	n/a	3	UoHDataOffsetStream
280.471427	0.012000	dropped_samples	1967.805076	Dropped 3 samples	n/a	n/a	n/a	n/a	n/a	n/a	3	UoHDataOffsetStream
282.629627	0.012000	dropped_samples	1969.963276	Dropped 3 samples	n/a	n/a	n/a	n/a	n/a	n/a	3	UoHDataOffsetStream
283.181363	0.012000	dropped_samples	1970.515012	Dropped 3 samples	n/a	n/a	n/a	n/a	n/a	n/a	3	UoHDataOffsetStream
285.149220	0.004000	dropped_samples	1972.482869	Dropped 1 samples	n/a	n/a	n/a	n/a	n/a	n/a	1	UoHDataOffsetStream
285.702316	0.000000	started_n_back	1973.035965	Started n-back	n/a	n/a	n/a	n/a	n/a	false	n/a	n-backMarkers
292.204866	0.004000	dropped_samples	1979.538516	Dropped 1 samples	n/a	n/a	n/a	n/a	n/a	n/a	1	UoHDataOffsetStream
293.698755	0.000000	1-back	1981.032404	Steps:1 KeyPress:False Matched:False	1	1	false	false	Correct	false	n/a	n-backMarkers
295.400254	0.000000	1-back	1982.733904	Steps:1 KeyPress:False Matched:False	1	1	false	false	Correct	false	n/a	n-backMarkers
296.360168	0.004000	dropped_samples	1983.693818	Dropped 1 samples	n/a	n/a	n/a	n/a	n/a	n/a	1	UoHDataOffsetStream
297.101239	0.000000	1-back	1984.434888	Steps:1 KeyPress:True Matched:False	0	1	true	false	Wrong	false	n/a	n-backMarkers
297.776170	0.012000	dropped_samples	1985.109819	Dropped 3 samples	n/a	n/a	n/a	n/a	n/a	n/a	3	UoHDataOffsetStream
298.802592	0.000000	1-back	1986.136241	Steps:1 KeyPress:False Matched:True	0	1	false	true	Wrong	false	n/a	n-backMarkers
300.502861	0.000000	1-back	1987.836510	Steps:1 KeyPress:False Matched:True	0	1	false	true	Wrong	false	n/a	n-backMarkers
300.847790	0.012000	dropped_samples	1988.181440	Dropped 3 samples	n/a	n/a	n/a	n/a	n/a	n/a	3	UoHDataOffsetStream
302.204074	0.000000	1-back	1989.537723	Steps:1 KeyPress:False Matched:False	1	1	false	false	Correct	false	n/a	n-backMarkers
302.361173	0.012000	dropped_samples	1989.694823	Dropped 3 samples	n/a	n/a	n/a	n/a	n/a	n/a	3	UoHDataOffsetStream
303.103334	0.004000	dropped_samples	1990.436984	Dropped 1 samples	n/a	n/a	n/a	n/a	n/a	n/a	1	UoHDataOffsetStream
303.905047	0.000000	1-back	1991.238697	Steps:1 KeyPress:True Matched:False	0	1	true	false	Wrong	false	n/a	n-backMarkers
305.144369	0.012000	dropped_samples	1992.478019	Dropped 3 samples	n/a	n/a	n/a	n/a	n/a	n/a	3	UoHDataOffsetStream
305.604969	0.000000	1-back	1992.938618	Steps:1 KeyPress:False Matched:True	0	1	false	true	Wrong	false	n/a	n-backMarkers
307.306925	0.000000	1-back	1994.640574	Steps:1 KeyPress:False Matched:True	0	1	false	true	Wrong	false	n/a	n-backMarkers
309.008627	0.000000	1-back	1996.342276	Steps:1 KeyPress:False Matched:False	1	1	false	false	Correct	false	n/a	n-backMarkers
309.631702	0.004000	dropped_samples	1996.965351	Dropped 1 samples	n/a	n/a	n/a	n/a	n/a	n/a	1	UoHDataOffsetStream
310.709615	0.000000	1-back	1998.043264	Steps:1 KeyPress:True Matched:False	0	1	true	false	Wrong	false	n/a	n-backMarkers
310.784019	0.012000	dropped_samples	1998.117668	Dropped 3 samples	n/a	n/a	n/a	n/a	n/a	n/a	3	UoHDataOffsetStream
312.410069	0.000000	1-back	1999.743718	Steps:1 KeyPress:False Matched:True	0	1	false	true	Wrong	false	n/a	n-backMarkers
312.800639	0.004000	dropped_samples	2000.134288	Dropped 1 samples	n/a	n/a	n/a	n/a	n/a	n/a	1	UoHDataOffsetStream
314.110961	0.000000	1-back	2001.444610	Steps:1 KeyPress:False Matched:False	1	1	false	false	Correct	false	n/a	n-backMarkers
314.358261	0.012000	dropped_samples	2001.691910	Dropped 3 samples	n/a	n/a	n/a	n/a	n/a	n/a	3	UoHDataOffsetStream
314.407094	0.004000	dropped_samples	2001.740743	Dropped 1 samples	n/a	n/a	n/a	n/a	n/a	n/a	1	UoHDataOffsetStream
315.811924	0.000000	1-back	2003.145573	Steps:1 KeyPress:True Matched:False	0	1	true	false	Wrong	false	n/a	n-backMarkers
316.301623	0.004000	dropped_samples	2003.635272	Dropped 1 samples	n/a	n/a	n/a	n/a	n/a	n/a	1	UoHDataOffsetStream
317.512685	0.000000	1-back	2004.846334	Steps:1 KeyPress:False Matched:True	0	1	false	true	Wrong	false	n/a	n-backMarkers
318.967787	0.012000	dropped_samples	2006.301436	Dropped 3 samples	n/a	n/a	n/a	n/a	n/a	n/a	3	UoHDataOffsetStream
319.213761	0.000000	1-back	2006.547411	Steps:1 KeyPress:False Matched:False	1	1	false	false	Correct	false	n/a	n-backMarkers
320.914015	0.000000	1-back	2008.247664	Steps:1 KeyPress:True Matched:False	0	1	true	false	Wrong	false	n/a	n-backMarkers
322.614906	0.000000	1-back	2009.948555	Steps:1 KeyPress:False Matched:True	0	1	false	true	Wrong	false	n/a	n-backMarkers
323.865456	0.012000	dropped_samples	2011.199105	Dropped 3 samples	n/a	n/a	n/a	n/a	n/a	n/a	3	UoHDataOffsetStream
324.315714	0.000000	1-back	2011.649363	Steps:1 KeyPress:False Matched:False	1	1	false	false	Correct	false	n/a	n-backMarkers
326.016004	0.000000	1-back	2013.349653	Steps:1 KeyPress:True Matched:False	0	1	true	false	Wrong	false	n/a	n-backMarkers
327.716792	0.000000	1-back	2015.050441	Steps:1 KeyPress:False Matched:False	1	1	false	false	Correct	false	n/a	n-backMarkers
328.782214	0.008000	dropped_samples	2016.115863	Dropped 2 samples	n/a	n/a	n/a	n/a	n/a	n/a	2	UoHDataOffsetStream
329.241110	0.004000	dropped_samples	2016.574759	Dropped 1 samples	n/a	n/a	n/a	n/a	n/a	n/a	1	UoHDataOffsetStream
329.418565	0.000000	1-back	2016.752214	Steps:1 KeyPress:True Matched:False	0	1	true	false	Wrong	false	n/a	n-backMarkers
331.120226	0.000000	1-back	2018.453875	Steps:1 KeyPress:False Matched:False	1	1	false	false	Correct	false	n/a	n-backMarkers
331.233836	0.012000	dropped_samples	2018.567485	Dropped 3 samples	n/a	n/a	n/a	n/a	n/a	n/a	3	UoHDataOffsetStream
331.257726	0.012000	dropped_samples	2018.591375	Dropped 3 samples	n/a	n/a	n/a	n/a	n/a	n/a	3	UoHDataOffsetStream
332.820609	0.000000	1-back	2020.154258	Steps:1 KeyPress:True Matched:False	0	1	true	false	Wrong	false	n/a	n-backMarkers
334.280211	0.004000	dropped_samples	2021.613860	Dropped 1 samples	n/a	n/a	n/a	n/a	n/a	n/a	1	UoHDataOffsetStream
334.519505	0.004000	dropped_samples	2021.853154	Dropped 1 samples	n/a	n/a	n/a	n/a	n/a	n/a	1	UoHDataOffsetStream
334.520918	0.000000	1-back	2021.854568	Steps:1 KeyPress:False Matched:True	0	1	false	true	Wrong	false	n/a	n-backMarkers
335.242119	0.004000	dropped_samples	2022.575769	Dropped 1 samples	n/a	n/a	n/a	n/a	n/a	n/a	1	UoHDataOffsetStream
336.125956	0.012000	dropped_samples	2023.459605	Dropped 3 samples	n/a	n/a	n/a	n/a	n/a	n/a	3	UoHDataOffsetStream
336.221751	0.000000	1-back	2023.555400	Steps:1 KeyPress:False Matched:True	0	1	false	true	Wrong	false	n/a	n-backMarkers
337.209921	0.012000	dropped_samples	2024.543570	Dropped 3 samples	n/a	n/a	n/a	n/a	n/a	n/a	3	UoHDataOffsetStream
337.921867	0.000000	1-back	2025.255516	Steps:1 KeyPress:False Matched:False	1	1	false	false	Correct	false	n/a	n-backMarkers
338.362280	0.004000	dropped_samples	2025.695929	Dropped 1 samples	n/a	n/a	n/a	n/a	n/a	n/a	1	UoHDataOffsetStream
339.622891	0.000000	1-back	2026.956540	Steps:1 KeyPress:False Matched:False	1	1	false	false	Correct	false	n/a	n-backMarkers
341.287240	0.004000	dropped_samples	2028.620889	Dropped 1 samples	n/a	n/a	n/a	n/a	n/a	n/a	1	UoHDataOffsetStream
341.324425	0.000000	1-back	2028.658074	Steps:1 KeyPress:True Matched:False	0	1	true	false	Wrong	false	n/a	n-backMarkers
343.025340	0.000000	1-back	2030.358989	Steps:1 KeyPress:False Matched:False	1	1	false	false	Correct	false	n/a	n-backMarkers
343.450121	0.004000	dropped_samples	2030.783770	Dropped 1 samples	n/a	n/a	n/a	n/a	n/a	n/a	1	UoHDataOffsetStream
344.167973	0.012000	dropped_samples	2031.501622	Dropped 3 samples	n/a	n/a	n/a	n/a	n/a	n/a	3	UoHDataOffsetStream
344.726949	0.000000	1-back	2032.060598	Steps:1 KeyPress:True Matched:False	0	1	true	false	Wrong	false	n/a	n-backMarkers
345.369103	0.004000	dropped_samples	2032.702753	Dropped 1 samples	n/a	n/a	n/a	n/a	n/a	n/a	1	UoHDataOffsetStream
346.428018	0.000000	1-back	2033.761667	Steps:1 KeyPress:False Matched:True	0	1	false	true	Wrong	false	n/a	n-backMarkers
348.129856	0.000000	1-back	2035.463505	Steps:1 KeyPress:False Matched:True	0	1	false	true	Wrong	false	n/a	n-backMarkers
348.938550	0.012000	dropped_samples	2036.272199	Dropped 3 samples	n/a	n/a	n/a	n/a	n/a	n/a	3	UoHDataOffsetStream
349.831582	0.000000	1-back	2037.165231	Steps:1 KeyPress:False Matched:False	1	1	false	false	Correct	false	n/a	n-backMarkers
350.071309	0.004000	dropped_samples	2037.404958	Dropped 1 samples	n/a	n/a	n/a	n/a	n/a	n/a	1	UoHDataOffsetStream
350.818360	0.012000	dropped_samples	2038.152009	Dropped 3 samples	n/a	n/a	n/a	n/a	n/a	n/a	3	UoHDataOffsetStream
351.532130	0.000000	1-back	2038.865779	Steps:1 KeyPress:True Matched:False	0	1	true	false	Wrong	false	n/a	n-backMarkers
353.232627	0.000000	1-back	2040.566276	Steps:1 KeyPress:False Matched:True	0	1	false	true	Wrong	false	n/a	n-backMarkers
354.933571	0.000000	1-back	2042.267220	Steps:1 KeyPress:True Matched:True	1	1	true	true	Correct	false	n/a	n-backMarkers
356.634910	0.000000	1-back	2043.968559	Steps:1 KeyPress:False Matched:False	1	1	false	false	Correct	false	n/a	n-backMarkers
358.335242	0.000000	1-back	2045.668891	Steps:1 KeyPress:True Matched:False	0	1	true	false	Wrong	false	n/a	n-backMarkers
359.504376	0.012000	dropped_samples	2046.838025	Dropped 3 samples	n/a	n/a	n/a	n/a	n/a	n/a	3	UoHDataOffsetStream
360.036971	0.000000	1-back	2047.370620	Steps:1 KeyPress:False Matched:True	0	1	false	true	Wrong	false	n/a	n-backMarkers
360.681647	0.008000	dropped_samples	2048.015296	Dropped 2 samples	n/a	n/a	n/a	n/a	n/a	n/a	2	UoHDataOffsetStream
361.738751	0.000000	1-back	2049.072400	Steps:1 KeyPress:False Matched:True	0	1	false	true	Wrong	false	n/a	n-backMarkers
363.439307	0.000000	1-back	2050.772956	Steps:1 KeyPress:False Matched:False	1	1	false	false	Correct	false	n/a	n-backMarkers
365.046947	0.012000	dropped_samples	2052.380596	Dropped 3 samples	n/a	n/a	n/a	n/a	n/a	n/a	3	UoHDataOffsetStream
365.140470	0.000000	1-back	2052.474119	Steps:1 KeyPress:False Matched:False	1	1	false	false	Correct	false	n/a	n-backMarkers
366.840657	0.000000	1-back	2054.174306	Steps:1 KeyPress:True Matched:False	0	1	true	false	Wrong	false	n/a	n-backMarkers
367.376047	0.012000	dropped_samples	2054.709696	Dropped 3 samples	n/a	n/a	n/a	n/a	n/a	n/a	3	UoHDataOffsetStream
368.542406	0.000000	1-back	2055.876055	Steps:1 KeyPress:False Matched:True	0	1	false	true	Wrong	false	n/a	n-backMarkers
368.705810	0.012000	dropped_samples	2056.039459	Dropped 3 samples	n/a	n/a	n/a	n/a	n/a	n/a	3	UoHDataOffsetStream
368.830546	0.012000	dropped_samples	2056.164195	Dropped 3 samples	n/a	n/a	n/a	n/a	n/a	n/a	3	UoHDataOffsetStream
368.831898	0.012000	dropped_samples	2056.165547	Dropped 3 samples	n/a	n/a	n/a	n/a	n/a	n/a	3	UoHDataOffsetStream
368.865310	0.032000	dropped_samples	2056.198959	Dropped 8 samples	n/a	n/a	n/a	n/a	n/a	n/a	8	UoHDataOffsetStream
369.558762	0.004000	dropped_samples	2056.892411	Dropped 1 samples	n/a	n/a	n/a	n/a	n/a	n/a	1	UoHDataOffsetStream
370.243931	0.000000	1-back	2057.577580	Steps:1 KeyPress:False Matched:True	0	1	false	true	Wrong	false	n/a	n-backMarkers
371.944060	0.000000	1-back	2059.277709	Steps:1 KeyPress:True Matched:False	0	1	true	false	Wrong	false	n/a	n-backMarkers
373.113361	0.004000	dropped_samples	2060.447010	Dropped 1 samples	n/a	n/a	n/a	n/a	n/a	n/a	1	UoHDataOffsetStream
373.644937	0.000000	1-back	2060.978586	Steps:1 KeyPress:False Matched:False	1	1	false	false	Correct	false	n/a	n-backMarkers
375.346679	0.000000	1-back	2062.680328	Steps:1 KeyPress:True Matched:False	0	1	true	false	Wrong	false	n/a	n-backMarkers
377.047677	0.000000	1-back	2064.381326	Steps:1 KeyPress:False Matched:True	0	1	false	true	Wrong	false	n/a	n-backMarkers
378.747989	0.000000	1-back	2066.081638	Steps:1 KeyPress:False Matched:True	0	1	false	true	Wrong	false	n/a	n-backMarkers
378.777430	0.012000	dropped_samples	2066.111079	Dropped 3 samples	n/a	n/a	n/a	n/a	n/a	n/a	3	UoHDataOffsetStream
380.449750	0.000000	1-back	2067.783399	Steps:1 KeyPress:False Matched:False	1	1	false	false	Correct	false	n/a	n-backMarkers
381.438583	0.004000	dropped_samples	2068.772232	Dropped 1 samples	n/a	n/a	n/a	n/a	n/a	n/a	1	UoHDataOffsetStream
382.150932	0.000000	1-back	2069.484581	Steps:1 KeyPress:True Matched:False	0	1	true	false	Wrong	false	n/a	n-backMarkers
383.852205	0.000000	1-back	2071.185854	Steps:1 KeyPress:False Matched:False	1	1	false	false	Correct	false	n/a	n-backMarkers
384.729581	0.004000	dropped_samples	2072.063231	Dropped 1 samples	n/a	n/a	n/a	n/a	n/a	n/a	1	UoHDataOffsetStream
385.552666	0.000000	1-back	2072.886315	Steps:1 KeyPress:True Matched:False	0	1	true	false	Wrong	false	n/a	n-backMarkers
387.252831	0.000000	1-back	2074.586481	Steps:1 KeyPress:False Matched:True	0	1	false	true	Wrong	false	n/a	n-backMarkers
388.954729	0.000000	1-back	2076.288378	Steps:1 KeyPress:False Matched:False	1	1	false	false	Correct	false	n/a	n-backMarkers
389.088066	0.012000	dropped_samples	2076.421715	Dropped 3 samples	n/a	n/a	n/a	n/a	n/a	n/a	3	UoHDataOffsetStream
389.207407	0.012000	dropped_samples	2076.541056	Dropped 3 samples	n/a	n/a	n/a	n/a	n/a	n/a	3	UoHDataOffsetStream
389.208784	0.012000	dropped_samples	2076.542433	Dropped 3 samples	n/a	n/a	n/a	n/a	n/a	n/a	3	UoHDataOffsetStream
389.241355	0.032000	dropped_samples	2076.575004	Dropped 8 samples	n/a	n/a	n/a	n/a	n/a	n/a	8	UoHDataOffsetStream
390.093075	0.012000	dropped_samples	2077.426724	Dropped 3 samples	n/a	n/a	n/a	n/a	n/a	n/a	3	UoHDataOffsetStream
390.129987	0.012000	dropped_samples	2077.463636	Dropped 3 samples	n/a	n/a	n/a	n/a	n/a	n/a	3	UoHDataOffsetStream
390.654933	0.000000	1-back	2077.988582	Steps:1 KeyPress:True Matched:False	0	1	true	false	Wrong	false	n/a	n-backMarkers
392.355371	0.000000	1-back	2079.689020	Steps:1 KeyPress:True Matched:True	1	1	true	true	Correct	false	n/a	n-backMarkers
394.056875	0.000000	1-back	2081.390524	Steps:1 KeyPress:True Matched:True	1	1	true	true	Correct	false	n/a	n-backMarkers
395.220108	0.012000	dropped_samples	2082.553758	Dropped 3 samples	n/a	n/a	n/a	n/a	n/a	n/a	3	UoHDataOffsetStream
395.266771	0.004000	dropped_samples	2082.600421	Dropped 1 samples	n/a	n/a	n/a	n/a	n/a	n/a	1	UoHDataOffsetStream
395.757743	0.000000	1-back	2083.091393	Steps:1 KeyPress:False Matched:False	1	1	false	false	Correct	false	n/a	n-backMarkers
397.457911	0.000000	1-back	2084.791560	Steps:1 KeyPress:True Matched:False	0	1	true	false	Wrong	false	n/a	n-backMarkers
399.159609	0.000000	1-back	2086.493258	Steps:1 KeyPress:False Matched:False	1	1	false	false	Correct	false	n/a	n-backMarkers
399.418465	0.012000	dropped_samples	2086.752114	Dropped 3 samples	n/a	n/a	n/a	n/a	n/a	n/a	3	UoHDataOffsetStream
400.784363	0.004000	dropped_samples	2088.118013	Dropped 1 samples	n/a	n/a	n/a	n/a	n/a	n/a	1	UoHDataOffsetStream
400.860948	0.000000	1-back	2088.194598	Steps:1 KeyPress:True Matched:False	0	1	true	false	Wrong	false	n/a	n-backMarkers
401.912327	0.004000	dropped_samples	2089.245976	Dropped 1 samples	n/a	n/a	n/a	n/a	n/a	n/a	1	UoHDataOffsetStream
402.562916	0.000000	1-back	2089.896565	Steps:1 KeyPress:False Matched:True	0	1	false	true	Wrong	false	n/a	n-backMarkers
404.264790	0.000000	1-back	2091.598439	Steps:1 KeyPress:False Matched:False	1	1	false	false	Correct	false	n/a	n-backMarkers
404.480640	0.004000	dropped_samples	2091.814289	Dropped 1 samples	n/a	n/a	n/a	n/a	n/a	n/a	1	UoHDataOffsetStream
405.965126	0.000000	1-back	2093.298775	Steps:1 KeyPress:True Matched:False	0	1	true	false	Wrong	false	n/a	n-backMarkers
407.049049	0.008000	dropped_samples	2094.382698	Dropped 2 samples	n/a	n/a	n/a	n/a	n/a	n/a	2	UoHDataOffsetStream
407.666376	0.000000	1-back	2095.000025	Steps:1 KeyPress:False Matched:True	0	1	false	true	Wrong	false	n/a	n-backMarkers
407.719341	0.012000	dropped_samples	2095.052990	Dropped 3 samples	n/a	n/a	n/a	n/a	n/a	n/a	3	UoHDataOffsetStream
407.747290	0.012000	dropped_samples	2095.080939	Dropped 3 samples	n/a	n/a	n/a	n/a	n/a	n/a	3	UoHDataOffsetStream
409.367721	0.000000	1-back	2096.701370	Steps:1 KeyPress:False Matched:True	0	1	false	true	Wrong	false	n/a	n-backMarkers
409.495397	0.004000	dropped_samples	2096.829046	Dropped 1 samples	n/a	n/a	n/a	n/a	n/a	n/a	1	UoHDataOffsetStream
411.067866	0.000000	1-back	2098.401515	Steps:1 KeyPress:False Matched:False	1	1	false	false	Correct	false	n/a	n-backMarkers
412.768092	0.000000	1-back	2100.101741	Steps:1 KeyPress:False Matched:False	1	1	false	false	Correct	false	n/a	n-backMarkers
414.468611	0.000000	1-back	2101.802260	Steps:1 KeyPress:False Matched:False	1	1	false	false	Correct	false	n/a	n-backMarkers
416.169841	0.000000	1-back	2103.503490	Steps:1 KeyPress:True Matched:False	0	1	true	false	Wrong	false	n/a	n-backMarkers
416.458229	0.012000	dropped_samples	2103.791878	Dropped 3 samples	n/a	n/a	n/a	n/a	n/a	n/a	3	UoHDataOffsetStream
417.176018	0.004000	dropped_samples	2104.509667	Dropped 1 samples	n/a	n/a	n/a	n/a	n/a	n/a	1	UoHDataOffsetStream
417.870752	0.000000	1-back	2105.204402	Steps:1 KeyPress:False Matched:False	1	1	false	false	Correct	false	n/a	n-backMarkers
419.571359	0.000000	1-back	2106.905008	Steps:1 KeyPress:True Matched:False	0	1	true	false	Wrong	false	n/a	n-backMarkers
421.062745	0.004000	dropped_samples	2108.396394	Dropped 1 samples	n/a	n/a	n/a	n/a	n/a	n/a	1	UoHDataOffsetStream
421.272820	0.000000	1-back	2108.606469	Steps:1 KeyPress:False Matched:False	1	1	false	false	Correct	false	n/a	n-backMarkers
421.844473	0.012000	dropped_samples	2109.178122	Dropped 3 samples	n/a	n/a	n/a	n/a	n/a	n/a	3	UoHDataOffsetStream
421.883058	0.012000	dropped_samples	2109.216707	Dropped 3 samples	n/a	n/a	n/a	n/a	n/a	n/a	3	UoHDataOffsetStream
422.974012	0.000000	1-back	2110.307662	Steps:1 KeyPress:True Matched:False	0	1	true	false	Wrong	false	n/a	n-backMarkers
423.802021	0.004000	dropped_samples	2111.135670	Dropped 1 samples	n/a	n/a	n/a	n/a	n/a	n/a	1	UoHDataOffsetStream
424.675653	0.000000	1-back	2112.009302	Steps:1 KeyPress:False Matched:False	1	1	false	false	Correct	false	n/a	n-backMarkers
424.715108	0.004000	dropped_samples	2112.048757	Dropped 1 samples	n/a	n/a	n/a	n/a	n/a	n/a	1	UoHDataOffsetStream
425.291285	0.004000	dropped_samples	2112.624934	Dropped 1 samples	n/a	n/a	n/a	n/a	n/a	n/a	1	UoHDataOffsetStream
426.376221	0.000000	1-back	2113.709870	Steps:1 KeyPress:True Matched:False	0	1	true	false	Wrong	false	n/a	n-backMarkers
427.185761	0.004000	dropped_samples	2114.519410	Dropped 1 samples	n/a	n/a	n/a	n/a	n/a	n/a	1	UoHDataOffsetStream
427.259035	0.004000	dropped_samples	2114.592684	Dropped 1 samples	n/a	n/a	n/a	n/a	n/a	n/a	1	UoHDataOffsetStream
428.076641	0.000000	1-back	2115.410290	Steps:1 KeyPress:False Matched:True	0	1	false	true	Wrong	false	n/a	n-backMarkers
429.776604	0.000000	1-back	2117.110253	Steps:1 KeyPress:False Matched:False	1	1	false	false	Correct	false	n/a	n-backMarkers
430.808865	0.008000	dropped_samples	2118.142515	Dropped 2 samples	n/a	n/a	n/a	n/a	n/a	n/a	2	UoHDataOffsetStream
431.476686	0.000000	1-back	2118.810335	Steps:1 KeyPress:True Matched:False	0	1	true	false	Wrong	false	n/a	n-backMarkers
432.090894	0.012000	dropped_samples	2119.424543	Dropped 3 samples	n/a	n/a	n/a	n/a	n/a	n/a	3	UoHDataOffsetStream
433.177515	0.000000	1-back	2120.511164	Steps:1 KeyPress:False Matched:True	0	1	false	true	Wrong	false	n/a	n-backMarkers
434.878899	0.000000	1-back	2122.212548	Steps:1 KeyPress:False Matched:True	0	1	false	true	Wrong	false	n/a	n-backMarkers
436.580095	0.000000	1-back	2123.913745	Steps:1 KeyPress:False Matched:False	1	1	false	false	Correct	false	n/a	n-backMarkers
437.698542	0.012000	dropped_samples	2125.032191	Dropped 3 samples	n/a	n/a	n/a	n/a	n/a	n/a	3	UoHDataOffsetStream
438.055041	0.008000	dropped_samples	2125.388690	Dropped 2 samples	n/a	n/a	n/a	n/a	n/a	n/a	2	UoHDataOffsetStream
438.281252	0.000000	1-back	2125.614901	Steps:1 KeyPress:False Matched:False	1	1	false	false	Correct	false	n/a	n-backMarkers
439.982072	0.000000	1-back	2127.315722	Steps:1 KeyPress:True Matched:False	0	1	true	false	Wrong	false	n/a	n-backMarkers
440.027810	0.004000	dropped_samples	2127.361459	Dropped 1 samples	n/a	n/a	n/a	n/a	n/a	n/a	1	UoHDataOffsetStream
441.682769	0.000000	1-back	2129.016418	Steps:1 KeyPress:False Matched:False	1	1	false	false	Correct	false	n/a	n-backMarkers
443.384738	0.000000	1-back	2130.718387	Steps:1 KeyPress:True Matched:False	0	1	true	false	Wrong	false	n/a	n-backMarkers
443.987665	0.004000	dropped_samples	2131.321314	Dropped 1 samples	n/a	n/a	n/a	n/a	n/a	n/a	1	UoHDataOffsetStream
444.514991	0.004000	dropped_samples	2131.848640	Dropped 1 samples	n/a	n/a	n/a	n/a	n/a	n/a	1	UoHDataOffsetStream
444.583314	0.004000	dropped_samples	2131.916963	Dropped 1 samples	n/a	n/a	n/a	n/a	n/a	n/a	1	UoHDataOffsetStream
445.085713	0.000000	1-back	2132.419362	Steps:1 KeyPress:False Matched:False	1	1	false	false	Correct	false	n/a	n-backMarkers
446.746436	0.004000	dropped_samples	2134.080085	Dropped 1 samples	n/a	n/a	n/a	n/a	n/a	n/a	1	UoHDataOffsetStream
446.785957	0.000000	1-back	2134.119606	Steps:1 KeyPress:True Matched:False	0	1	true	false	Wrong	false	n/a	n-backMarkers
447.151776	0.008000	dropped_samples	2134.485425	Dropped 2 samples	n/a	n/a	n/a	n/a	n/a	n/a	2	UoHDataOffsetStream
448.487900	0.000000	1-back	2135.821549	Steps:1 KeyPress:False Matched:True	0	1	false	true	Wrong	false	n/a	n-backMarkers
450.188742	0.000000	1-back	2137.522391	Steps:1 KeyPress:False Matched:False	1	1	false	false	Correct	false	n/a	n-backMarkers
451.889844	0.000000	1-back	2139.223493	Steps:1 KeyPress:True Matched:False	0	1	true	false	Wrong	false	n/a	n-backMarkers
451.907619	0.004000	dropped_samples	2139.241268	Dropped 1 samples	n/a	n/a	n/a	n/a	n/a	n/a	1	UoHDataOffsetStream
452.098325	0.004000	dropped_samples	2139.431974	Dropped 1 samples	n/a	n/a	n/a	n/a	n/a	n/a	1	UoHDataOffsetStream
453.590876	0.000000	1-back	2140.924525	Steps:1 KeyPress:False Matched:True	0	1	false	true	Wrong	false	n/a	n-backMarkers
455.291766	0.000000	1-back	2142.625415	Steps:1 KeyPress:False Matched:False	1	1	false	false	Correct	false	n/a	n-backMarkers
455.769891	0.008000	dropped_samples	2143.103540	Dropped 2 samples	n/a	n/a	n/a	n/a	n/a	n/a	2	UoHDataOffsetStream
456.993266	0.000000	1-back	2144.326915	Steps:1 KeyPress:True Matched:False	0	1	true	false	Wrong	false	n/a	n-backMarkers
458.694666	0.000000	1-back	2146.028315	Steps:1 KeyPress:False Matched:False	1	1	false	false	Correct	false	n/a	n-backMarkers
460.394962	0.000000	1-back	2147.728611	Steps:1 KeyPress:True Matched:False	0	1	true	false	Wrong	false	n/a	n-backMarkers
461.507227	0.008000	dropped_samples	2148.840876	Dropped 2 samples	n/a	n/a	n/a	n/a	n/a	n/a	2	UoHDataOffsetStream
462.095840	0.000000	1-back	2149.429489	Steps:1 KeyPress:False Matched:False	1	1	false	false	Correct	false	n/a	n-backMarkers
464.217191	0.004000	dropped_samples	2151.550841	Dropped 1 samples	n/a	n/a	n/a	n/a	n/a	n/a	1	UoHDataOffsetStream
469.090241	0.012000	dropped_samples	2156.423890	Dropped 3 samples	n/a	n/a	n/a	n/a	n/a	n/a	3	UoHDataOffsetStream
470.794041	0.000000	2-back	2158.127690	Steps:2 KeyPress:False Matched:False	1	2	false	false	Correct	false	n/a	n-backMarkers
471.346124	0.012000	dropped_samples	2158.679773	Dropped 3 samples	n/a	n/a	n/a	n/a	n/a	n/a	3	UoHDataOffsetStream
472.495023	0.000000	2-back	2159.828672	Steps:2 KeyPress:False Matched:False	1	2	false	false	Correct	false	n/a	n-backMarkers
472.952542	0.008000	dropped_samples	2160.286191	Dropped 2 samples	n/a	n/a	n/a	n/a	n/a	n/a	2	UoHDataOffsetStream
474.195766	0.000000	2-back	2161.529415	Steps:2 KeyPress:False Matched:False	1	2	false	false	Correct	false	n/a	n-backMarkers
474.729888	0.004000	dropped_samples	2162.063537	Dropped 1 samples	n/a	n/a	n/a	n/a	n/a	n/a	1	UoHDataOffsetStream
474.786377	0.004000	dropped_samples	2162.120026	Dropped 1 samples	n/a	n/a	n/a	n/a	n/a	n/a	1	UoHDataOffsetStream
475.896184	0.000000	2-back	2163.229833	Steps:2 KeyPress:True Matched:False	0	2	true	false	Wrong	false	n/a	n-backMarkers
477.597031	0.000000	2-back	2164.930681	Steps:2 KeyPress:False Matched:True	0	2	false	true	Wrong	false	n/a	n-backMarkers
479.297692	0.000000	2-back	2166.631341	Steps:2 KeyPress:False Matched:False	1	2	false	false	Correct	false	n/a	n-backMarkers
480.154758	0.012000	dropped_samples	2167.488407	Dropped 3 samples	n/a	n/a	n/a	n/a	n/a	n/a	3	UoHDataOffsetStream
480.657680	0.008000	dropped_samples	2167.991329	Dropped 2 samples	n/a	n/a	n/a	n/a	n/a	n/a	2	UoHDataOffsetStream
480.998773	0.000000	2-back	2168.332422	Steps:2 KeyPress:False Matched:False	1	2	false	false	Correct	false	n/a	n-backMarkers
482.700443	0.000000	2-back	2170.034092	Steps:2 KeyPress:True Matched:False	0	2	true	false	Wrong	false	n/a	n-backMarkers
484.401169	0.000000	2-back	2171.734818	Steps:2 KeyPress:False Matched:False	1	2	false	false	Correct	false	n/a	n-backMarkers
485.984871	0.012000	dropped_samples	2173.318520	Dropped 3 samples	n/a	n/a	n/a	n/a	n/a	n/a	3	UoHDataOffsetStream
486.101910	0.000000	2-back	2173.435559	Steps:2 KeyPress:False Matched:False	1	2	false	false	Correct	false	n/a	n-backMarkers
487.064050	0.004000	dropped_samples	2174.397699	Dropped 1 samples	n/a	n/a	n/a	n/a	n/a	n/a	1	UoHDataOffsetStream
487.802792	0.000000	2-back	2175.136441	Steps:2 KeyPress:True Matched:False	0	2	true	false	Wrong	false	n/a	n-backMarkers
489.504204	0.000000	2-back	2176.837854	Steps:2 KeyPress:False Matched:False	1	2	false	false	Correct	false	n/a	n-backMarkers
490.184099	0.012000	dropped_samples	2177.517748	Dropped 3 samples	n/a	n/a	n/a	n/a	n/a	n/a	3	UoHDataOffsetStream
491.206037	0.000000	2-back	2178.539686	Steps:2 KeyPress:False Matched:False	1	2	false	false	Correct	false	n/a	n-backMarkers
492.908327	0.000000	2-back	2180.241976	Steps:2 KeyPress:True Matched:False	0	2	true	false	Wrong	false	n/a	n-backMarkers
494.608384	0.000000	2-back	2181.942033	Steps:2 KeyPress:False Matched:False	1	2	false	false	Correct	false	n/a	n-backMarkers
496.308865	0.000000	2-back	2183.642514	Steps:2 KeyPress:False Matched:False	1	2	false	false	Correct	false	n/a	n-backMarkers
496.644121	0.012000	dropped_samples	2183.977770	Dropped 3 samples	n/a	n/a	n/a	n/a	n/a	n/a	3	UoHDataOffsetStream
498.009905	0.000000	2-back	2185.343554	Steps:2 KeyPress:False Matched:False	1	2	false	false	Correct	false	n/a	n-backMarkers
498.274926	0.012000	dropped_samples	2185.608575	Dropped 3 samples	n/a	n/a	n/a	n/a	n/a	n/a	3	UoHDataOffsetStream
499.710860	0.000000	2-back	2187.044509	Steps:2 KeyPress:False Matched:True	0	2	false	true	Wrong	false	n/a	n-backMarkers
501.412604	0.000000	2-back	2188.746254	Steps:2 KeyPress:False Matched:False	1	2	false	false	Correct	false	n/a	n-backMarkers
503.113204	0.000000	2-back	2190.446854	Steps:2 KeyPress:False Matched:False	1	2	false	false	Correct	false	n/a	n-backMarkers
504.814711	0.000000	2-back	2192.148360	Steps:2 KeyPress:True Matched:False	0	2	true	false	Wrong	false	n/a	n-backMarkers
505.018368	0.004000	dropped_samples	2192.352017	Dropped 1 samples	n/a	n/a	n/a	n/a	n/a	n/a	1	UoHDataOffsetStream
506.515898	0.000000	2-back	2193.849548	Steps:2 KeyPress:False Matched:False	1	2	false	false	Correct	false	n/a	n-backMarkers
506.819899	0.012000	dropped_samples	2194.153548	Dropped 3 samples	n/a	n/a	n/a	n/a	n/a	n/a	3	UoHDataOffsetStream
508.217821	0.000000	2-back	2195.551471	Steps:2 KeyPress:False Matched:False	1	2	false	false	Correct	false	n/a	n-backMarkers
509.917823	0.000000	2-back	2197.251472	Steps:2 KeyPress:False Matched:False	1	2	false	false	Correct	false	n/a	n-backMarkers
510.154902	0.004000	dropped_samples	2197.488551	Dropped 1 samples	n/a	n/a	n/a	n/a	n/a	n/a	1	UoHDataOffsetStream
511.380474	0.012000	dropped_samples	2198.714124	Dropped 3 samples	n/a	n/a	n/a	n/a	n/a	n/a	3	UoHDataOffsetStream
511.619140	0.000000	2-back	2198.952789	Steps:2 KeyPress:False Matched:False	1	2	false	false	Correct	false	n/a	n-backMarkers
511.620378	0.004000	dropped_samples	2198.954028	Dropped 1 samples	n/a	n/a	n/a	n/a	n/a	n/a	1	UoHDataOffsetStream
512.864824	0.004000	dropped_samples	2200.198473	Dropped 1 samples	n/a	n/a	n/a	n/a	n/a	n/a	1	UoHDataOffsetStream
513.319969	0.000000	2-back	2200.653619	Steps:2 KeyPress:False Matched:False	1	2	false	false	Correct	false	n/a	n-backMarkers
515.021794	0.000000	2-back	2202.355444	Steps:2 KeyPress:True Matched:False	0	2	true	false	Wrong	false	n/a	n-backMarkers
515.984944	0.012000	dropped_samples	2203.318593	Dropped 3 samples	n/a	n/a	n/a	n/a	n/a	n/a	3	UoHDataOffsetStream
516.395111	0.008000	dropped_samples	2203.728760	Dropped 2 samples	n/a	n/a	n/a	n/a	n/a	n/a	2	UoHDataOffsetStream
516.722390	0.000000	2-back	2204.056040	Steps:2 KeyPress:False Matched:False	1	2	false	false	Correct	false	n/a	n-backMarkers
517.596285	0.004000	dropped_samples	2204.929934	Dropped 1 samples	n/a	n/a	n/a	n/a	n/a	n/a	1	UoHDataOffsetStream
518.422845	0.000000	2-back	2205.756494	Steps:2 KeyPress:False Matched:False	1	2	false	false	Correct	false	n/a	n-backMarkers
518.748608	0.008000	dropped_samples	2206.082257	Dropped 2 samples	n/a	n/a	n/a	n/a	n/a	n/a	2	UoHDataOffsetStream
520.123893	0.000000	2-back	2207.457542	Steps:2 KeyPress:True Matched:False	0	2	true	false	Wrong	false	n/a	n-backMarkers
521.824305	0.000000	2-back	2209.157955	Steps:2 KeyPress:False Matched:True	0	2	false	true	Wrong	false	n/a	n-backMarkers
522.850272	0.008000	dropped_samples	2210.183921	Dropped 2 samples	n/a	n/a	n/a	n/a	n/a	n/a	2	UoHDataOffsetStream
523.524779	0.000000	2-back	2210.858428	Steps:2 KeyPress:False Matched:False	1	2	false	false	Correct	false	n/a	n-backMarkers
525.225678	0.000000	2-back	2212.559327	Steps:2 KeyPress:False Matched:False	1	2	false	false	Correct	false	n/a	n-backMarkers
526.785772	0.004000	dropped_samples	2214.119421	Dropped 1 samples	n/a	n/a	n/a	n/a	n/a	n/a	1	UoHDataOffsetStream
526.926745	0.000000	2-back	2214.260394	Steps:2 KeyPress:False Matched:False	1	2	false	false	Correct	false	n/a	n-backMarkers
528.628010	0.000000	2-back	2215.961659	Steps:2 KeyPress:False Matched:False	1	2	false	false	Correct	false	n/a	n-backMarkers
529.212536	0.004000	dropped_samples	2216.546186	Dropped 1 samples	n/a	n/a	n/a	n/a	n/a	n/a	1	UoHDataOffsetStream
530.329769	0.000000	2-back	2217.663418	Steps:2 KeyPress:False Matched:True	0	2	false	true	Wrong	false	n/a	n-backMarkers
532.030804	0.000000	2-back	2219.364453	Steps:2 KeyPress:False Matched:False	1	2	false	false	Correct	false	n/a	n-backMarkers
532.884440	0.012000	dropped_samples	2220.218089	Dropped 3 samples	n/a	n/a	n/a	n/a	n/a	n/a	3	UoHDataOffsetStream
533.197173	0.004000	dropped_samples	2220.530823	Dropped 1 samples	n/a	n/a	n/a	n/a	n/a	n/a	1	UoHDataOffsetStream
533.504553	0.020000	dropped_samples	2220.838202	Dropped 5 samples	n/a	n/a	n/a	n/a	n/a	n/a	5	UoHDataOffsetStream
533.731271	0.000000	2-back	2221.064920	Steps:2 KeyPress:False Matched:False	1	2	false	false	Correct	false	n/a	n-backMarkers
533.956002	0.004000	dropped_samples	2221.289651	Dropped 1 samples	n/a	n/a	n/a	n/a	n/a	n/a	1	UoHDataOffsetStream
534.564158	0.012000	dropped_samples	2221.897807	Dropped 3 samples	n/a	n/a	n/a	n/a	n/a	n/a	3	UoHDataOffsetStream
535.432727	0.000000	2-back	2222.766376	Steps:2 KeyPress:False Matched:False	1	2	false	false	Correct	false	n/a	n-backMarkers
536.170550	0.004000	dropped_samples	2223.504200	Dropped 1 samples	n/a	n/a	n/a	n/a	n/a	n/a	1	UoHDataOffsetStream
537.133193	0.000000	2-back	2224.466842	Steps:2 KeyPress:True Matched:False	0	2	true	false	Wrong	false	n/a	n-backMarkers
538.016272	0.004000	dropped_samples	2225.349922	Dropped 1 samples	n/a	n/a	n/a	n/a	n/a	n/a	1	UoHDataOffsetStream
538.833962	0.000000	2-back	2226.167611	Steps:2 KeyPress:False Matched:False	1	2	false	false	Correct	false	n/a	n-backMarkers
539.700864	0.004000	dropped_samples	2227.034514	Dropped 1 samples	n/a	n/a	n/a	n/a	n/a	n/a	1	UoHDataOffsetStream
540.535180	0.000000	2-back	2227.868829	Steps:2 KeyPress:False Matched:False	1	2	false	false	Correct	false	n/a	n-backMarkers
541.185254	0.004000	dropped_samples	2228.518903	Dropped 1 samples	n/a	n/a	n/a	n/a	n/a	n/a	1	UoHDataOffsetStream
542.236558	0.000000	2-back	2229.570208	Steps:2 KeyPress:True Matched:False	0	2	true	false	Wrong	false	n/a	n-backMarkers
542.268196	0.012000	dropped_samples	2229.601845	Dropped 3 samples	n/a	n/a	n/a	n/a	n/a	n/a	3	UoHDataOffsetStream
543.937180	0.000000	2-back	2231.270829	Steps:2 KeyPress:False Matched:True	0	2	false	true	Wrong	false	n/a	n-backMarkers
544.931745	0.012000	dropped_samples	2232.265394	Dropped 3 samples	n/a	n/a	n/a	n/a	n/a	n/a	3	UoHDataOffsetStream
544.979216	0.008000	dropped_samples	2232.312865	Dropped 2 samples	n/a	n/a	n/a	n/a	n/a	n/a	2	UoHDataOffsetStream
545.637843	0.000000	2-back	2232.971492	Steps:2 KeyPress:False Matched:False	1	2	false	false	Correct	false	n/a	n-backMarkers
546.107135	0.012000	dropped_samples	2233.440784	Dropped 3 samples	n/a	n/a	n/a	n/a	n/a	n/a	3	UoHDataOffsetStream
546.512394	0.012000	dropped_samples	2233.846043	Dropped 3 samples	n/a	n/a	n/a	n/a	n/a	n/a	3	UoHDataOffsetStream
547.338285	0.000000	2-back	2234.671934	Steps:2 KeyPress:False Matched:True	0	2	false	true	Wrong	false	n/a	n-backMarkers
547.786829	0.004000	dropped_samples	2235.120478	Dropped 1 samples	n/a	n/a	n/a	n/a	n/a	n/a	1	UoHDataOffsetStream
548.148139	0.012000	dropped_samples	2235.481788	Dropped 3 samples	n/a	n/a	n/a	n/a	n/a	n/a	3	UoHDataOffsetStream
549.040127	0.000000	2-back	2236.373777	Steps:2 KeyPress:False Matched:False	1	2	false	false	Correct	false	n/a	n-backMarkers
550.716524	0.004000	dropped_samples	2238.050173	Dropped 1 samples	n/a	n/a	n/a	n/a	n/a	n/a	1	UoHDataOffsetStream
550.741628	0.000000	2-back	2238.075277	Steps:2 KeyPress:False Matched:False	1	2	false	false	Correct	false	n/a	n-backMarkers
551.624754	0.012000	dropped_samples	2238.958403	Dropped 3 samples	n/a	n/a	n/a	n/a	n/a	n/a	3	UoHDataOffsetStream
552.442919	0.000000	2-back	2239.776568	Steps:2 KeyPress:True Matched:False	0	2	true	false	Wrong	false	n/a	n-backMarkers
554.144155	0.000000	2-back	2241.477804	Steps:2 KeyPress:False Matched:True	0	2	false	true	Wrong	false	n/a	n-backMarkers
555.844856	0.000000	2-back	2243.178505	Steps:2 KeyPress:False Matched:False	1	2	false	false	Correct	false	n/a	n-backMarkers
557.545705	0.000000	2-back	2244.879354	Steps:2 KeyPress:False Matched:False	1	2	false	false	Correct	false	n/a	n-backMarkers
558.966233	0.012000	dropped_samples	2246.299882	Dropped 3 samples	n/a	n/a	n/a	n/a	n/a	n/a	3	UoHDataOffsetStream
558.992926	0.012000	dropped_samples	2246.326575	Dropped 3 samples	n/a	n/a	n/a	n/a	n/a	n/a	3	UoHDataOffsetStream
559.246779	0.000000	2-back	2246.580428	Steps:2 KeyPress:True Matched:False	0	2	true	false	Wrong	false	n/a	n-backMarkers
559.813249	0.004000	dropped_samples	2247.146898	Dropped 1 samples	n/a	n/a	n/a	n/a	n/a	n/a	1	UoHDataOffsetStream
560.947728	0.000000	2-back	2248.281377	Steps:2 KeyPress:False Matched:True	0	2	false	true	Wrong	false	n/a	n-backMarkers
561.273266	0.004000	dropped_samples	2248.606915	Dropped 1 samples	n/a	n/a	n/a	n/a	n/a	n/a	1	UoHDataOffsetStream
562.649251	0.000000	2-back	2249.982900	Steps:2 KeyPress:False Matched:False	1	2	false	false	Correct	false	n/a	n-backMarkers
562.689215	0.004000	dropped_samples	2250.022864	Dropped 1 samples	n/a	n/a	n/a	n/a	n/a	n/a	1	UoHDataOffsetStream
563.792749	0.004000	dropped_samples	2251.126398	Dropped 1 samples	n/a	n/a	n/a	n/a	n/a	n/a	1	UoHDataOffsetStream
564.227353	0.012000	dropped_samples	2251.561002	Dropped 3 samples	n/a	n/a	n/a	n/a	n/a	n/a	3	UoHDataOffsetStream
564.350126	0.000000	2-back	2251.683775	Steps:2 KeyPress:False Matched:False	1	2	false	false	Correct	false	n/a	n-backMarkers
566.050927	0.000000	2-back	2253.384576	Steps:2 KeyPress:False Matched:False	1	2	false	false	Correct	false	n/a	n-backMarkers
567.752812	0.000000	2-back	2255.086462	Steps:2 KeyPress:False Matched:False	1	2	false	false	Correct	false	n/a	n-backMarkers
568.596339	0.012000	dropped_samples	2255.929988	Dropped 3 samples	n/a	n/a	n/a	n/a	n/a	n/a	3	UoHDataOffsetStream
568.617006	0.012000	dropped_samples	2255.950655	Dropped 3 samples	n/a	n/a	n/a	n/a	n/a	n/a	3	UoHDataOffsetStream
568.929527	0.012000	dropped_samples	2256.263176	Dropped 3 samples	n/a	n/a	n/a	n/a	n/a	n/a	3	UoHDataOffsetStream
569.452795	0.000000	2-back	2256.786444	Steps:2 KeyPress:False Matched:False	1	2	false	false	Correct	false	n/a	n-backMarkers
571.153201	0.000000	2-back	2258.486850	Steps:2 KeyPress:True Matched:False	0	2	true	false	Wrong	false	n/a	n-backMarkers
571.862407	0.012000	dropped_samples	2259.196056	Dropped 3 samples	n/a	n/a	n/a	n/a	n/a	n/a	3	UoHDataOffsetStream
572.853833	0.000000	2-back	2260.187482	Steps:2 KeyPress:False Matched:True	0	2	false	true	Wrong	false	n/a	n-backMarkers
574.554321	0.000000	2-back	2261.887970	Steps:2 KeyPress:False Matched:False	1	2	false	false	Correct	false	n/a	n-backMarkers
576.255952	0.000000	2-back	2263.589601	Steps:2 KeyPress:False Matched:False	1	2	false	false	Correct	false	n/a	n-backMarkers
577.956762	0.000000	2-back	2265.290411	Steps:2 KeyPress:False Matched:False	1	2	false	false	Correct	false	n/a	n-backMarkers
579.658163	0.000000	2-back	2266.991812	Steps:2 KeyPress:False Matched:False	1	2	false	false	Correct	false	n/a	n-backMarkers
581.359911	0.000000	2-back	2268.693560	Steps:2 KeyPress:False Matched:False	1	2	false	false	Correct	false	n/a	n-backMarkers
583.059908	0.000000	2-back	2270.393557	Steps:2 KeyPress:True Matched:False	0	2	true	false	Wrong	false	n/a	n-backMarkers
584.412929	0.012000	dropped_samples	2271.746578	Dropped 3 samples	n/a	n/a	n/a	n/a	n/a	n/a	3	UoHDataOffsetStream
584.761770	0.000000	2-back	2272.095419	Steps:2 KeyPress:False Matched:True	0	2	false	true	Wrong	false	n/a	n-backMarkers
586.331961	0.008000	dropped_samples	2273.665610	Dropped 2 samples	n/a	n/a	n/a	n/a	n/a	n/a	2	UoHDataOffsetStream
586.462948	0.000000	2-back	2273.796597	Steps:2 KeyPress:False Matched:False	1	2	false	false	Correct	false	n/a	n-backMarkers
588.164273	0.000000	2-back	2275.497922	Steps:2 KeyPress:False Matched:False	1	2	false	false	Correct	false	n/a	n-backMarkers
588.587780	0.008000	dropped_samples	2275.921429	Dropped 2 samples	n/a	n/a	n/a	n/a	n/a	n/a	2	UoHDataOffsetStream
589.864797	0.000000	2-back	2277.198446	Steps:2 KeyPress:True Matched:False	0	2	true	false	Wrong	false	n/a	n-backMarkers
591.565619	0.000000	2-back	2278.899268	Steps:2 KeyPress:False Matched:False	1	2	false	false	Correct	false	n/a	n-backMarkers
592.474494	0.012000	dropped_samples	2279.808143	Dropped 3 samples	n/a	n/a	n/a	n/a	n/a	n/a	3	UoHDataOffsetStream
593.266799	0.000000	2-back	2280.600449	Steps:2 KeyPress:False Matched:False	1	2	false	false	Correct	false	n/a	n-backMarkers
593.675684	0.004000	dropped_samples	2281.009334	Dropped 1 samples	n/a	n/a	n/a	n/a	n/a	n/a	1	UoHDataOffsetStream
594.968129	0.000000	2-back	2282.301778	Steps:2 KeyPress:True Matched:False	0	2	true	false	Wrong	false	n/a	n-backMarkers
595.858320	0.004000	dropped_samples	2283.191969	Dropped 1 samples	n/a	n/a	n/a	n/a	n/a	n/a	1	UoHDataOffsetStream
596.668188	0.000000	2-back	2284.001837	Steps:2 KeyPress:False Matched:False	1	2	false	false	Correct	false	n/a	n-backMarkers
598.368171	0.000000	2-back	2285.701820	Steps:2 KeyPress:False Matched:False	1	2	false	false	Correct	false	n/a	n-backMarkers
600.069817	0.000000	2-back	2287.403466	Steps:2 KeyPress:True Matched:False	0	2	true	false	Wrong	false	n/a	n-backMarkers
601.331930	0.004000	dropped_samples	2288.665579	Dropped 1 samples	n/a	n/a	n/a	n/a	n/a	n/a	1	UoHDataOffsetStream
601.497924	0.012000	dropped_samples	2288.831574	Dropped 3 samples	n/a	n/a	n/a	n/a	n/a	n/a	3	UoHDataOffsetStream
601.770814	0.000000	2-back	2289.104463	Steps:2 KeyPress:False Matched:False	1	2	false	false	Correct	false	n/a	n-backMarkers
601.883789	0.004000	dropped_samples	2289.217438	Dropped 1 samples	n/a	n/a	n/a	n/a	n/a	n/a	1	UoHDataOffsetStream
603.472827	0.000000	2-back	2290.806476	Steps:2 KeyPress:False Matched:False	1	2	false	false	Correct	false	n/a	n-backMarkers
605.173977	0.000000	2-back	2292.507626	Steps:2 KeyPress:False Matched:False	1	2	false	false	Correct	false	n/a	n-backMarkers
605.770440	0.004000	dropped_samples	2293.104089	Dropped 1 samples	n/a	n/a	n/a	n/a	n/a	n/a	1	UoHDataOffsetStream
606.419854	0.008000	dropped_samples	2293.753503	Dropped 2 samples	n/a	n/a	n/a	n/a	n/a	n/a	2	UoHDataOffsetStream
606.875836	0.000000	2-back	2294.209485	Steps:2 KeyPress:False Matched:False	1	2	false	false	Correct	false	n/a	n-backMarkers
607.190563	0.004000	dropped_samples	2294.524212	Dropped 1 samples	n/a	n/a	n/a	n/a	n/a	n/a	1	UoHDataOffsetStream
607.235297	0.004000	dropped_samples	2294.568946	Dropped 1 samples	n/a	n/a	n/a	n/a	n/a	n/a	1	UoHDataOffsetStream
608.576834	0.000000	2-back	2295.910483	Steps:2 KeyPress:False Matched:False	1	2	false	false	Correct	false	n/a	n-backMarkers
610.277818	0.000000	2-back	2297.611467	Steps:2 KeyPress:True Matched:False	0	2	true	false	Wrong	false	n/a	n-backMarkers
611.551279	0.012000	dropped_samples	2298.884929	Dropped 3 samples	n/a	n/a	n/a	n/a	n/a	n/a	3	UoHDataOffsetStream
611.978737	0.000000	2-back	2299.312386	Steps:2 KeyPress:False Matched:False	1	2	false	false	Correct	false	n/a	n-backMarkers
613.679910	0.000000	2-back	2301.013560	Steps:2 KeyPress:False Matched:False	1	2	false	false	Correct	false	n/a	n-backMarkers
615.252913	0.012000	dropped_samples	2302.586562	Dropped 3 samples	n/a	n/a	n/a	n/a	n/a	n/a	3	UoHDataOffsetStream
615.380897	0.000000	2-back	2302.714546	Steps:2 KeyPress:True Matched:False	0	2	true	false	Wrong	false	n/a	n-backMarkers
615.492160	0.004000	dropped_samples	2302.825809	Dropped 1 samples	n/a	n/a	n/a	n/a	n/a	n/a	1	UoHDataOffsetStream
616.546873	0.012000	dropped_samples	2303.880522	Dropped 3 samples	n/a	n/a	n/a	n/a	n/a	n/a	3	UoHDataOffsetStream
617.081839	0.000000	2-back	2304.415488	Steps:2 KeyPress:False Matched:True	0	2	false	true	Wrong	false	n/a	n-backMarkers
618.782277	0.000000	2-back	2306.115926	Steps:2 KeyPress:False Matched:False	1	2	false	false	Correct	false	n/a	n-backMarkers
620.482842	0.000000	2-back	2307.816491	Steps:2 KeyPress:False Matched:True	0	2	false	true	Wrong	false	n/a	n-backMarkers
621.119031	0.008000	dropped_samples	2308.452680	Dropped 2 samples	n/a	n/a	n/a	n/a	n/a	n/a	2	UoHDataOffsetStream
621.156256	0.012000	dropped_samples	2308.489906	Dropped 3 samples	n/a	n/a	n/a	n/a	n/a	n/a	3	UoHDataOffsetStream
621.468743	0.012000	dropped_samples	2308.802392	Dropped 3 samples	n/a	n/a	n/a	n/a	n/a	n/a	3	UoHDataOffsetStream
622.162116	0.008000	dropped_samples	2309.495765	Dropped 2 samples	n/a	n/a	n/a	n/a	n/a	n/a	2	UoHDataOffsetStream
622.183781	0.000000	2-back	2309.517430	Steps:2 KeyPress:False Matched:False	1	2	false	false	Correct	false	n/a	n-backMarkers
622.860341	0.004000	dropped_samples	2310.193990	Dropped 1 samples	n/a	n/a	n/a	n/a	n/a	n/a	1	UoHDataOffsetStream
623.509769	0.012000	dropped_samples	2310.843418	Dropped 3 samples	n/a	n/a	n/a	n/a	n/a	n/a	3	UoHDataOffsetStream
623.817558	0.012000	dropped_samples	2311.151208	Dropped 3 samples	n/a	n/a	n/a	n/a	n/a	n/a	3	UoHDataOffsetStream
623.884939	0.000000	2-back	2311.218588	Steps:2 KeyPress:False Matched:True	0	2	false	true	Wrong	false	n/a	n-backMarkers
624.877759	0.012000	dropped_samples	2312.211408	Dropped 3 samples	n/a	n/a	n/a	n/a	n/a	n/a	3	UoHDataOffsetStream
625.585953	0.000000	2-back	2312.919602	Steps:2 KeyPress:False Matched:False	1	2	false	false	Correct	false	n/a	n-backMarkers
625.667955	0.004000	dropped_samples	2313.001604	Dropped 1 samples	n/a	n/a	n/a	n/a	n/a	n/a	1	UoHDataOffsetStream
627.287821	0.000000	2-back	2314.621470	Steps:2 KeyPress:True Matched:False	0	2	true	false	Wrong	false	n/a	n-backMarkers
628.988295	0.000000	2-back	2316.321944	Steps:2 KeyPress:False Matched:False	1	2	false	false	Correct	false	n/a	n-backMarkers
630.688290	0.000000	2-back	2318.021939	Steps:2 KeyPress:False Matched:False	1	2	false	false	Correct	false	n/a	n-backMarkers
630.897434	0.004000	dropped_samples	2318.231083	Dropped 1 samples	n/a	n/a	n/a	n/a	n/a	n/a	1	UoHDataOffsetStream
631.674556	0.012000	dropped_samples	2319.008205	Dropped 3 samples	n/a	n/a	n/a	n/a	n/a	n/a	3	UoHDataOffsetStream
631.693419	0.012000	dropped_samples	2319.027069	Dropped 3 samples	n/a	n/a	n/a	n/a	n/a	n/a	3	UoHDataOffsetStream
632.389835	0.000000	2-back	2319.723484	Steps:2 KeyPress:True Matched:False	0	2	true	false	Wrong	false	n/a	n-backMarkers
634.089958	0.000000	2-back	2321.423607	Steps:2 KeyPress:False Matched:False	1	2	false	false	Correct	false	n/a	n-backMarkers
635.790048	0.000000	2-back	2323.123697	Steps:2 KeyPress:False Matched:False	1	2	false	false	Correct	false	n/a	n-backMarkers
635.892611	0.004000	dropped_samples	2323.226260	Dropped 1 samples	n/a	n/a	n/a	n/a	n/a	n/a	1	UoHDataOffsetStream
636.419976	0.004000	dropped_samples	2323.753625	Dropped 1 samples	n/a	n/a	n/a	n/a	n/a	n/a	1	UoHDataOffsetStream
636.784474	0.004000	dropped_samples	2324.118123	Dropped 1 samples	n/a	n/a	n/a	n/a	n/a	n/a	1	UoHDataOffsetStream
637.425785	0.004000	dropped_samples	2324.759434	Dropped 1 samples	n/a	n/a	n/a	n/a	n/a	n/a	1	UoHDataOffsetStream
637.491008	0.000000	2-back	2324.824657	Steps:2 KeyPress:True Matched:False	0	2	true	false	Wrong	false	n/a	n-backMarkers
638.338916	0.004000	dropped_samples	2325.672565	Dropped 1 samples	n/a	n/a	n/a	n/a	n/a	n/a	1	UoHDataOffsetStream
639.192464	0.000000	2-back	2326.526114	Steps:2 KeyPress:False Matched:False	1	2	false	false	Correct	false	n/a	n-backMarkers
640.526461	0.008000	dropped_samples	2327.860111	Dropped 2 samples	n/a	n/a	n/a	n/a	n/a	n/a	2	UoHDataOffsetStream
642.110095	0.008000	dropped_samples	2329.443744	Dropped 2 samples	n/a	n/a	n/a	n/a	n/a	n/a	2	UoHDataOffsetStream
642.801835	0.012000	dropped_samples	2330.135484	Dropped 3 samples	n/a	n/a	n/a	n/a	n/a	n/a	3	UoHDataOffsetStream
647.900408	0.000000	3-back	2335.234057	Steps:3 KeyPress:False Matched:False	1	3	false	false	Correct	false	n/a	n-backMarkers
649.188561	0.004000	dropped_samples	2336.522210	Dropped 1 samples	n/a	n/a	n/a	n/a	n/a	n/a	1	UoHDataOffsetStream
649.600794	0.000000	3-back	2336.934443	Steps:3 KeyPress:False Matched:False	1	3	false	false	Correct	false	n/a	n-backMarkers
650.340910	0.012000	dropped_samples	2337.674559	Dropped 3 samples	n/a	n/a	n/a	n/a	n/a	n/a	3	UoHDataOffsetStream
651.301908	0.000000	3-back	2338.635558	Steps:3 KeyPress:False Matched:False	1	3	false	false	Correct	false	n/a	n-backMarkers
653.002238	0.000000	3-back	2340.335888	Steps:3 KeyPress:False Matched:False	1	3	false	false	Correct	false	n/a	n-backMarkers
654.702829	0.000000	3-back	2342.036478	Steps:3 KeyPress:False Matched:False	1	3	false	false	Correct	false	n/a	n-backMarkers
656.403421	0.000000	3-back	2343.737070	Steps:3 KeyPress:False Matched:False	1	3	false	false	Correct	false	n/a	n-backMarkers
658.103929	0.000000	3-back	2345.437578	Steps:3 KeyPress:False Matched:False	1	3	false	false	Correct	false	n/a	n-backMarkers
659.804861	0.000000	3-back	2347.138510	Steps:3 KeyPress:False Matched:False	1	3	false	false	Correct	false	n/a	n-backMarkers
661.190570	0.008000	dropped_samples	2348.524219	Dropped 2 samples	n/a	n/a	n/a	n/a	n/a	n/a	2	UoHDataOffsetStream
661.505381	0.000000	3-back	2348.839031	Steps:3 KeyPress:False Matched:False	1	3	false	false	Correct	false	n/a	n-backMarkers
662.821446	0.008000	dropped_samples	2350.155095	Dropped 2 samples	n/a	n/a	n/a	n/a	n/a	n/a	2	UoHDataOffsetStream
663.206603	0.000000	3-back	2350.540252	Steps:3 KeyPress:False Matched:False	1	3	false	false	Correct	false	n/a	n-backMarkers
664.907625	0.000000	3-back	2352.241274	Steps:3 KeyPress:True Matched:True	1	3	true	true	Correct	false	n/a	n-backMarkers
666.608187	0.000000	3-back	2353.941837	Steps:3 KeyPress:False Matched:False	1	3	false	false	Correct	false	n/a	n-backMarkers
667.259933	0.016000	dropped_samples	2354.593582	Dropped 4 samples	n/a	n/a	n/a	n/a	n/a	n/a	4	UoHDataOffsetStream
668.309042	0.000000	3-back	2355.642691	Steps:3 KeyPress:False Matched:False	1	3	false	false	Correct	false	n/a	n-backMarkers
669.203287	0.004000	dropped_samples	2356.536936	Dropped 1 samples	n/a	n/a	n/a	n/a	n/a	n/a	1	UoHDataOffsetStream
669.706218	0.008000	dropped_samples	2357.039867	Dropped 2 samples	n/a	n/a	n/a	n/a	n/a	n/a	2	UoHDataOffsetStream
670.010800	0.000000	3-back	2357.344449	Steps:3 KeyPress:False Matched:False	1	3	false	false	Correct	false	n/a	n-backMarkers
671.711834	0.000000	3-back	2359.045483	Steps:3 KeyPress:False Matched:False	1	3	false	false	Correct	false	n/a	n-backMarkers
673.412137	0.000000	3-back	2360.745786	Steps:3 KeyPress:False Matched:False	1	3	false	false	Correct	false	n/a	n-backMarkers
675.112807	0.000000	3-back	2362.446456	Steps:3 KeyPress:False Matched:False	1	3	false	false	Correct	false	n/a	n-backMarkers
676.669136	0.004000	dropped_samples	2364.002785	Dropped 1 samples	n/a	n/a	n/a	n/a	n/a	n/a	1	UoHDataOffsetStream
676.814104	0.000000	3-back	2364.147753	Steps:3 KeyPress:False Matched:False	1	3	false	false	Correct	false	n/a	n-backMarkers
677.626174	0.004000	dropped_samples	2364.959823	Dropped 1 samples	n/a	n/a	n/a	n/a	n/a	n/a	1	UoHDataOffsetStream
678.515203	0.000000	3-back	2365.848853	Steps:3 KeyPress:False Matched:False	1	3	false	false	Correct	false	n/a	n-backMarkers
680.052919	0.004000	dropped_samples	2367.386568	Dropped 1 samples	n/a	n/a	n/a	n/a	n/a	n/a	1	UoHDataOffsetStream
680.216752	0.000000	3-back	2367.550401	Steps:3 KeyPress:False Matched:False	1	3	false	false	Correct	false	n/a	n-backMarkers
680.919078	0.012000	dropped_samples	2368.252727	Dropped 3 samples	n/a	n/a	n/a	n/a	n/a	n/a	3	UoHDataOffsetStream
681.058805	0.004000	dropped_samples	2368.392455	Dropped 1 samples	n/a	n/a	n/a	n/a	n/a	n/a	1	UoHDataOffsetStream
681.916793	0.000000	3-back	2369.250442	Steps:3 KeyPress:False Matched:False	1	3	false	false	Correct	false	n/a	n-backMarkers
683.436744	0.004000	dropped_samples	2370.770393	Dropped 1 samples	n/a	n/a	n/a	n/a	n/a	n/a	1	UoHDataOffsetStream
683.617742	0.000000	3-back	2370.951392	Steps:3 KeyPress:False Matched:False	1	3	false	false	Correct	false	n/a	n-backMarkers
684.926064	0.012000	dropped_samples	2372.259713	Dropped 3 samples	n/a	n/a	n/a	n/a	n/a	n/a	3	UoHDataOffsetStream
685.318069	0.000000	3-back	2372.651718	Steps:3 KeyPress:False Matched:False	1	3	false	false	Correct	false	n/a	n-backMarkers
685.453375	0.008000	dropped_samples	2372.787024	Dropped 2 samples	n/a	n/a	n/a	n/a	n/a	n/a	2	UoHDataOffsetStream
686.293204	0.012000	dropped_samples	2373.626853	Dropped 3 samples	n/a	n/a	n/a	n/a	n/a	n/a	3	UoHDataOffsetStream
687.019031	0.000000	3-back	2374.352680	Steps:3 KeyPress:False Matched:False	1	3	false	false	Correct	false	n/a	n-backMarkers
688.719928	0.000000	3-back	2376.053577	Steps:3 KeyPress:False Matched:False	1	3	false	false	Correct	false	n/a	n-backMarkers
689.266849	0.008000	dropped_samples	2376.600499	Dropped 2 samples	n/a	n/a	n/a	n/a	n/a	n/a	2	UoHDataOffsetStream
690.420807	0.000000	3-back	2377.754456	Steps:3 KeyPress:False Matched:True	0	3	false	true	Wrong	false	n/a	n-backMarkers
692.120838	0.000000	3-back	2379.454487	Steps:3 KeyPress:False Matched:False	1	3	false	false	Correct	false	n/a	n-backMarkers
692.123410	0.004000	dropped_samples	2379.457060	Dropped 1 samples	n/a	n/a	n/a	n/a	n/a	n/a	1	UoHDataOffsetStream
692.557870	0.004000	dropped_samples	2379.891519	Dropped 1 samples	n/a	n/a	n/a	n/a	n/a	n/a	1	UoHDataOffsetStream
693.822515	0.000000	3-back	2381.156165	Steps:3 KeyPress:False Matched:False	1	3	false	false	Correct	false	n/a	n-backMarkers
695.523263	0.000000	3-back	2382.856912	Steps:3 KeyPress:False Matched:False	1	3	false	false	Correct	false	n/a	n-backMarkers
697.224801	0.000000	3-back	2384.558450	Steps:3 KeyPress:False Matched:False	1	3	false	false	Correct	false	n/a	n-backMarkers
698.926039	0.000000	3-back	2386.259688	Steps:3 KeyPress:True Matched:True	1	3	true	true	Correct	false	n/a	n-backMarkers
699.179000	0.004000	dropped_samples	2386.512649	Dropped 1 samples	n/a	n/a	n/a	n/a	n/a	n/a	1	UoHDataOffsetStream
700.627039	0.000000	3-back	2387.960688	Steps:3 KeyPress:False Matched:False	1	3	false	false	Correct	false	n/a	n-backMarkers
701.483674	0.012000	dropped_samples	2388.817323	Dropped 3 samples	n/a	n/a	n/a	n/a	n/a	n/a	3	UoHDataOffsetStream
702.328317	0.000000	3-back	2389.661966	Steps:3 KeyPress:False Matched:False	1	3	false	false	Correct	false	n/a	n-backMarkers
703.383109	0.012000	dropped_samples	2390.716758	Dropped 3 samples	n/a	n/a	n/a	n/a	n/a	n/a	3	UoHDataOffsetStream
704.029449	0.000000	3-back	2391.363098	Steps:3 KeyPress:False Matched:False	1	3	false	false	Correct	false	n/a	n-backMarkers
705.730444	0.000000	3-back	2393.064094	Steps:3 KeyPress:False Matched:True	0	3	false	true	Wrong	false	n/a	n-backMarkers
707.054986	0.004000	dropped_samples	2394.388635	Dropped 1 samples	n/a	n/a	n/a	n/a	n/a	n/a	1	UoHDataOffsetStream
707.430956	0.000000	3-back	2394.764606	Steps:3 KeyPress:False Matched:False	1	3	false	false	Correct	false	n/a	n-backMarkers
708.207316	0.012000	dropped_samples	2395.540965	Dropped 3 samples	n/a	n/a	n/a	n/a	n/a	n/a	3	UoHDataOffsetStream
709.131947	0.000000	3-back	2396.465596	Steps:3 KeyPress:False Matched:False	1	3	false	false	Correct	false	n/a	n-backMarkers
710.531651	0.004000	dropped_samples	2397.865300	Dropped 1 samples	n/a	n/a	n/a	n/a	n/a	n/a	1	UoHDataOffsetStream
710.832231	0.000000	3-back	2398.165880	Steps:3 KeyPress:False Matched:False	1	3	false	false	Correct	false	n/a	n-backMarkers
712.532118	0.000000	3-back	2399.865767	Steps:3 KeyPress:False Matched:False	1	3	false	false	Correct	false	n/a	n-backMarkers
714.233963	0.000000	3-back	2401.567612	Steps:3 KeyPress:True Matched:False	0	3	true	false	Wrong	false	n/a	n-backMarkers
714.852940	0.004000	dropped_samples	2402.186589	Dropped 1 samples	n/a	n/a	n/a	n/a	n/a	n/a	1	UoHDataOffsetStream
715.934856	0.000000	3-back	2403.268505	Steps:3 KeyPress:False Matched:True	0	3	false	true	Wrong	false	n/a	n-backMarkers
717.637076	0.000000	3-back	2404.970725	Steps:3 KeyPress:False Matched:False	1	3	false	false	Correct	false	n/a	n-backMarkers
719.339045	0.000000	3-back	2406.672694	Steps:3 KeyPress:False Matched:False	1	3	false	false	Correct	false	n/a	n-backMarkers
720.995572	0.012000	dropped_samples	2408.329221	Dropped 3 samples	n/a	n/a	n/a	n/a	n/a	n/a	3	UoHDataOffsetStream
721.040861	0.000000	3-back	2408.374510	Steps:3 KeyPress:False Matched:False	1	3	false	false	Correct	false	n/a	n-backMarkers
722.741945	0.000000	3-back	2410.075594	Steps:3 KeyPress:False Matched:False	1	3	false	false	Correct	false	n/a	n-backMarkers
724.443027	0.000000	3-back	2411.776676	Steps:3 KeyPress:False Matched:False	1	3	false	false	Correct	false	n/a	n-backMarkers
726.144366	0.000000	3-back	2413.478015	Steps:3 KeyPress:False Matched:False	1	3	false	false	Correct	false	n/a	n-backMarkers
727.548234	0.012000	dropped_samples	2414.881884	Dropped 3 samples	n/a	n/a	n/a	n/a	n/a	n/a	3	UoHDataOffsetStream
727.845770	0.000000	3-back	2415.179419	Steps:3 KeyPress:False Matched:False	1	3	false	false	Correct	false	n/a	n-backMarkers
728.535674	0.004000	dropped_samples	2415.869323	Dropped 1 samples	n/a	n/a	n/a	n/a	n/a	n/a	1	UoHDataOffsetStream
729.546756	0.000000	3-back	2416.880405	Steps:3 KeyPress:False Matched:False	1	3	false	false	Correct	false	n/a	n-backMarkers
731.029667	0.008000	dropped_samples	2418.363316	Dropped 2 samples	n/a	n/a	n/a	n/a	n/a	n/a	2	UoHDataOffsetStream
731.247990	0.000000	3-back	2418.581639	Steps:3 KeyPress:False Matched:True	0	3	false	true	Wrong	false	n/a	n-backMarkers
732.948739	0.000000	3-back	2420.282388	Steps:3 KeyPress:False Matched:False	1	3	false	false	Correct	false	n/a	n-backMarkers
734.648752	0.000000	3-back	2421.982401	Steps:3 KeyPress:False Matched:False	1	3	false	false	Correct	false	n/a	n-backMarkers
736.349039	0.000000	3-back	2423.682688	Steps:3 KeyPress:True Matched:False	0	3	true	false	Wrong	false	n/a	n-backMarkers
737.582409	0.008000	dropped_samples	2424.916059	Dropped 2 samples	n/a	n/a	n/a	n/a	n/a	n/a	2	UoHDataOffsetStream
738.050930	0.000000	3-back	2425.384580	Steps:3 KeyPress:False Matched:False	1	3	false	false	Correct	false	n/a	n-backMarkers
739.091294	0.004000	dropped_samples	2426.424944	Dropped 1 samples	n/a	n/a	n/a	n/a	n/a	n/a	1	UoHDataOffsetStream
739.752271	0.000000	3-back	2427.085920	Steps:3 KeyPress:False Matched:False	1	3	false	false	Correct	false	n/a	n-backMarkers
741.452450	0.000000	3-back	2428.786099	Steps:3 KeyPress:False Matched:False	1	3	false	false	Correct	false	n/a	n-backMarkers
743.153813	0.000000	3-back	2430.487462	Steps:3 KeyPress:False Matched:False	1	3	false	false	Correct	false	n/a	n-backMarkers
743.534627	0.004000	dropped_samples	2430.868276	Dropped 1 samples	n/a	n/a	n/a	n/a	n/a	n/a	1	UoHDataOffsetStream
744.854843	0.000000	3-back	2432.188492	Steps:3 KeyPress:False Matched:False	1	3	false	false	Correct	false	n/a	n-backMarkers
745.980903	0.012000	dropped_samples	2433.314552	Dropped 3 samples	n/a	n/a	n/a	n/a	n/a	n/a	3	UoHDataOffsetStream
746.554999	0.000000	3-back	2433.888648	Steps:3 KeyPress:False Matched:False	1	3	false	false	Correct	false	n/a	n-backMarkers
748.256179	0.000000	3-back	2435.589828	Steps:3 KeyPress:True Matched:True	1	3	true	true	Correct	false	n/a	n-backMarkers
748.715313	0.004000	dropped_samples	2436.048962	Dropped 1 samples	n/a	n/a	n/a	n/a	n/a	n/a	1	UoHDataOffsetStream
749.198702	0.004000	dropped_samples	2436.532351	Dropped 1 samples	n/a	n/a	n/a	n/a	n/a	n/a	1	UoHDataOffsetStream
749.957133	0.000000	3-back	2437.290782	Steps:3 KeyPress:False Matched:False	1	3	false	false	Correct	false	n/a	n-backMarkers
750.111823	0.004000	dropped_samples	2437.445472	Dropped 1 samples	n/a	n/a	n/a	n/a	n/a	n/a	1	UoHDataOffsetStream
751.658810	0.000000	3-back	2438.992459	Steps:3 KeyPress:False Matched:False	1	3	false	false	Correct	false	n/a	n-backMarkers
753.358912	0.000000	3-back	2440.692561	Steps:3 KeyPress:False Matched:False	1	3	false	false	Correct	false	n/a	n-backMarkers
755.060708	0.000000	3-back	2442.394357	Steps:3 KeyPress:False Matched:False	1	3	false	false	Correct	false	n/a	n-backMarkers
755.917470	0.012000	dropped_samples	2443.251119	Dropped 3 samples	n/a	n/a	n/a	n/a	n/a	n/a	3	UoHDataOffsetStream
756.760769	0.000000	3-back	2444.094418	Steps:3 KeyPress:True Matched:False	0	3	true	false	Wrong	false	n/a	n-backMarkers
757.143088	0.012000	dropped_samples	2444.476737	Dropped 3 samples	n/a	n/a	n/a	n/a	n/a	n/a	3	UoHDataOffsetStream
758.461484	0.000000	3-back	2445.795134	Steps:3 KeyPress:False Matched:True	0	3	false	true	Wrong	false	n/a	n-backMarkers
759.374525	0.008000	dropped_samples	2446.708174	Dropped 2 samples	n/a	n/a	n/a	n/a	n/a	n/a	2	UoHDataOffsetStream
760.162023	0.000000	3-back	2447.495672	Steps:3 KeyPress:False Matched:False	1	3	false	false	Correct	false	n/a	n-backMarkers
761.263384	0.012000	dropped_samples	2448.597033	Dropped 3 samples	n/a	n/a	n/a	n/a	n/a	n/a	3	UoHDataOffsetStream
761.293466	0.012000	dropped_samples	2448.627115	Dropped 3 samples	n/a	n/a	n/a	n/a	n/a	n/a	3	UoHDataOffsetStream
761.862815	0.000000	3-back	2449.196464	Steps:3 KeyPress:False Matched:False	1	3	false	false	Correct	false	n/a	n-backMarkers
763.564322	0.000000	3-back	2450.897971	Steps:3 KeyPress:False Matched:False	1	3	false	false	Correct	false	n/a	n-backMarkers
764.003451	0.012000	dropped_samples	2451.337100	Dropped 3 samples	n/a	n/a	n/a	n/a	n/a	n/a	3	UoHDataOffsetStream
765.264815	0.000000	3-back	2452.598464	Steps:3 KeyPress:False Matched:False	1	3	false	false	Correct	false	n/a	n-backMarkers
766.044472	0.008000	dropped_samples	2453.378121	Dropped 2 samples	n/a	n/a	n/a	n/a	n/a	n/a	2	UoHDataOffsetStream
766.964817	0.000000	3-back	2454.298466	Steps:3 KeyPress:False Matched:True	0	3	false	true	Wrong	false	n/a	n-backMarkers
768.134345	0.004000	dropped_samples	2455.467995	Dropped 1 samples	n/a	n/a	n/a	n/a	n/a	n/a	1	UoHDataOffsetStream
768.665801	0.000000	3-back	2455.999450	Steps:3 KeyPress:False Matched:False	1	3	false	false	Correct	false	n/a	n-backMarkers
769.838466	0.004000	dropped_samples	2457.172115	Dropped 1 samples	n/a	n/a	n/a	n/a	n/a	n/a	1	UoHDataOffsetStream
770.366846	0.000000	3-back	2457.700496	Steps:3 KeyPress:False Matched:False	1	3	false	false	Correct	false	n/a	n-backMarkers
772.066980	0.000000	3-back	2459.400629	Steps:3 KeyPress:False Matched:False	1	3	false	false	Correct	false	n/a	n-backMarkers
773.768843	0.000000	3-back	2461.102492	Steps:3 KeyPress:False Matched:False	1	3	false	false	Correct	false	n/a	n-backMarkers
775.469873	0.000000	3-back	2462.803522	Steps:3 KeyPress:False Matched:False	1	3	false	false	Correct	false	n/a	n-backMarkers
776.269123	0.008000	dropped_samples	2463.602772	Dropped 2 samples	n/a	n/a	n/a	n/a	n/a	n/a	2	UoHDataOffsetStream
777.170867	0.000000	3-back	2464.504516	Steps:3 KeyPress:False Matched:True	0	3	false	true	Wrong	false	n/a	n-backMarkers
777.924391	0.008000	dropped_samples	2465.258040	Dropped 2 samples	n/a	n/a	n/a	n/a	n/a	n/a	2	UoHDataOffsetStream
778.872178	0.000000	3-back	2466.205827	Steps:3 KeyPress:False Matched:False	1	3	false	false	Correct	false	n/a	n-backMarkers
780.573904	0.000000	3-back	2467.907553	Steps:3 KeyPress:False Matched:False	1	3	false	false	Correct	false	n/a	n-backMarkers
780.688066	0.008000	dropped_samples	2468.021715	Dropped 2 samples	n/a	n/a	n/a	n/a	n/a	n/a	2	UoHDataOffsetStream
780.878531	0.004000	dropped_samples	2468.212180	Dropped 1 samples	n/a	n/a	n/a	n/a	n/a	n/a	1	UoHDataOffsetStream
782.123636	0.004000	dropped_samples	2469.457285	Dropped 1 samples	n/a	n/a	n/a	n/a	n/a	n/a	1	UoHDataOffsetStream
782.274926	0.000000	3-back	2469.608575	Steps:3 KeyPress:True Matched:True	1	3	true	true	Correct	false	n/a	n-backMarkers
783.976626	0.000000	3-back	2471.310276	Steps:3 KeyPress:False Matched:False	1	3	false	false	Correct	false	n/a	n-backMarkers
785.151002	0.012000	dropped_samples	2472.484651	Dropped 3 samples	n/a	n/a	n/a	n/a	n/a	n/a	3	UoHDataOffsetStream
785.676804	0.000000	3-back	2473.010453	Steps:3 KeyPress:False Matched:False	1	3	false	false	Correct	false	n/a	n-backMarkers
786.708603	0.008000	dropped_samples	2474.042252	Dropped 2 samples	n/a	n/a	n/a	n/a	n/a	n/a	2	UoHDataOffsetStream
787.376893	0.000000	3-back	2474.710543	Steps:3 KeyPress:False Matched:False	1	3	false	false	Correct	false	n/a	n-backMarkers
788.510391	0.016000	dropped_samples	2475.844040	Dropped 4 samples	n/a	n/a	n/a	n/a	n/a	n/a	4	UoHDataOffsetStream
789.077803	0.000000	3-back	2476.411452	Steps:3 KeyPress:False Matched:False	1	3	false	false	Correct	false	n/a	n-backMarkers
790.779021	0.000000	3-back	2478.112670	Steps:3 KeyPress:False Matched:True	0	3	false	true	Wrong	false	n/a	n-backMarkers
792.480041	0.000000	3-back	2479.813690	Steps:3 KeyPress:False Matched:False	1	3	false	false	Correct	false	n/a	n-backMarkers
792.973278	0.008000	dropped_samples	2480.306927	Dropped 2 samples	n/a	n/a	n/a	n/a	n/a	n/a	2	UoHDataOffsetStream
794.180857	0.000000	3-back	2481.514506	Steps:3 KeyPress:False Matched:False	1	3	false	false	Correct	false	n/a	n-backMarkers
794.628589	0.012000	dropped_samples	2481.962238	Dropped 3 samples	n/a	n/a	n/a	n/a	n/a	n/a	3	UoHDataOffsetStream
795.882326	0.000000	3-back	2483.215975	Steps:3 KeyPress:False Matched:False	1	3	false	false	Correct	false	n/a	n-backMarkers
797.582835	0.000000	3-back	2484.916484	Steps:3 KeyPress:False Matched:False	1	3	false	false	Correct	false	n/a	n-backMarkers
799.283869	0.000000	3-back	2486.617518	Steps:3 KeyPress:True Matched:False	0	3	true	false	Wrong	false	n/a	n-backMarkers
800.555734	0.008000	dropped_samples	2487.889383	Dropped 2 samples	n/a	n/a	n/a	n/a	n/a	n/a	2	UoHDataOffsetStream
800.984173	0.000000	3-back	2488.317822	Steps:3 KeyPress:False Matched:True	0	3	false	true	Wrong	false	n/a	n-backMarkers
802.684953	0.000000	3-back	2490.018602	Steps:3 KeyPress:False Matched:False	1	3	false	false	Correct	false	n/a	n-backMarkers
804.385984	0.000000	3-back	2491.719634	Steps:3 KeyPress:False Matched:False	1	3	false	false	Correct	false	n/a	n-backMarkers
806.086972	0.000000	3-back	2493.420621	Steps:3 KeyPress:False Matched:False	1	3	false	false	Correct	false	n/a	n-backMarkers
806.918625	0.004000	dropped_samples	2494.252274	Dropped 1 samples	n/a	n/a	n/a	n/a	n/a	n/a	1	UoHDataOffsetStream
807.787480	0.000000	3-back	2495.121129	Steps:3 KeyPress:False Matched:False	1	3	false	false	Correct	false	n/a	n-backMarkers
809.489056	0.000000	3-back	2496.822705	Steps:3 KeyPress:True Matched:True	1	3	true	true	Correct	false	n/a	n-backMarkers
811.190105	0.000000	3-back	2498.523754	Steps:3 KeyPress:False Matched:False	1	3	false	false	Correct	false	n/a	n-backMarkers
811.742926	0.012000	dropped_samples	2499.076576	Dropped 3 samples	n/a	n/a	n/a	n/a	n/a	n/a	3	UoHDataOffsetStream
812.079923	0.004000	dropped_samples	2499.413572	Dropped 1 samples	n/a	n/a	n/a	n/a	n/a	n/a	1	UoHDataOffsetStream
812.655989	0.004000	dropped_samples	2499.989638	Dropped 1 samples	n/a	n/a	n/a	n/a	n/a	n/a	1	UoHDataOffsetStream
812.890781	0.000000	3-back	2500.224431	Steps:3 KeyPress:False Matched:False	1	3	false	false	Correct	false	n/a	n-backMarkers
814.590985	0.000000	3-back	2501.924634	Steps:3 KeyPress:False Matched:False	1	3	false	false	Correct	false	n/a	n-backMarkers
816.292719	0.000000	3-back	2503.626368	Steps:3 KeyPress:False Matched:False	1	3	false	false	Correct	false	n/a	n-backMarkers
820.214607	0.012000	dropped_samples	2507.548256	Dropped 3 samples	n/a	n/a	n/a	n/a	n/a	n/a	3	UoHDataOffsetStream
823.258981	0.012000	dropped_samples	2510.592630	Dropped 3 samples	n/a	n/a	n/a	n/a	n/a	n/a	3	UoHDataOffsetStream
823.379071	0.012000	dropped_samples	2510.712720	Dropped 3 samples	n/a	n/a	n/a	n/a	n/a	n/a	3	UoHDataOffsetStream
823.386820	0.012000	dropped_samples	2510.720470	Dropped 3 samples	n/a	n/a	n/a	n/a	n/a	n/a	3	UoHDataOffsetStream
823.432371	0.036000	dropped_samples	2510.766020	Dropped 9 samples	n/a	n/a	n/a	n/a	n/a	n/a	9	UoHDataOffsetStream
824.994847	0.000000	4-back	2512.328496	Steps:4 KeyPress:False Matched:False	1	4	false	false	Correct	false	n/a	n-backMarkers
826.166925	0.012000	dropped_samples	2513.500575	Dropped 3 samples	n/a	n/a	n/a	n/a	n/a	n/a	3	UoHDataOffsetStream
826.669678	0.012000	dropped_samples	2514.003327	Dropped 3 samples	n/a	n/a	n/a	n/a	n/a	n/a	3	UoHDataOffsetStream
826.696511	0.000000	4-back	2514.030160	Steps:4 KeyPress:False Matched:False	1	4	false	false	Correct	false	n/a	n-backMarkers
827.797583	0.012000	dropped_samples	2515.131232	Dropped 3 samples	n/a	n/a	n/a	n/a	n/a	n/a	3	UoHDataOffsetStream
828.036872	0.004000	dropped_samples	2515.370522	Dropped 1 samples	n/a	n/a	n/a	n/a	n/a	n/a	1	UoHDataOffsetStream
828.398071	0.000000	4-back	2515.731720	Steps:4 KeyPress:False Matched:False	1	4	false	false	Correct	false	n/a	n-backMarkers
829.120936	0.008000	dropped_samples	2516.454586	Dropped 2 samples	n/a	n/a	n/a	n/a	n/a	n/a	2	UoHDataOffsetStream
829.452908	0.004000	dropped_samples	2516.786557	Dropped 1 samples	n/a	n/a	n/a	n/a	n/a	n/a	1	UoHDataOffsetStream
830.099054	0.000000	4-back	2517.432704	Steps:4 KeyPress:False Matched:True	0	4	false	true	Wrong	false	n/a	n-backMarkers
831.800262	0.000000	4-back	2519.133912	Steps:4 KeyPress:True Matched:True	1	4	true	true	Correct	false	n/a	n-backMarkers
833.500917	0.000000	4-back	2520.834566	Steps:4 KeyPress:False Matched:False	1	4	false	false	Correct	false	n/a	n-backMarkers
833.896267	0.004000	dropped_samples	2521.229917	Dropped 1 samples	n/a	n/a	n/a	n/a	n/a	n/a	1	UoHDataOffsetStream
835.200964	0.000000	4-back	2522.534613	Steps:4 KeyPress:False Matched:False	1	4	false	false	Correct	false	n/a	n-backMarkers
836.508606	0.004000	dropped_samples	2523.842255	Dropped 1 samples	n/a	n/a	n/a	n/a	n/a	n/a	1	UoHDataOffsetStream
836.902843	0.000000	4-back	2524.236492	Steps:4 KeyPress:False Matched:False	1	4	false	false	Correct	false	n/a	n-backMarkers
838.602821	0.000000	4-back	2525.936470	Steps:4 KeyPress:True Matched:True	1	4	true	true	Correct	false	n/a	n-backMarkers
839.174639	0.012000	dropped_samples	2526.508288	Dropped 3 samples	n/a	n/a	n/a	n/a	n/a	n/a	3	UoHDataOffsetStream
839.487102	0.012000	dropped_samples	2526.820751	Dropped 3 samples	n/a	n/a	n/a	n/a	n/a	n/a	3	UoHDataOffsetStream
840.303856	0.000000	4-back	2527.637505	Steps:4 KeyPress:False Matched:False	1	4	false	false	Correct	false	n/a	n-backMarkers
842.004884	0.000000	4-back	2529.338533	Steps:4 KeyPress:False Matched:False	1	4	false	false	Correct	false	n/a	n-backMarkers
842.558435	0.012000	dropped_samples	2529.892084	Dropped 3 samples	n/a	n/a	n/a	n/a	n/a	n/a	3	UoHDataOffsetStream
843.705910	0.000000	4-back	2531.039559	Steps:4 KeyPress:False Matched:True	0	4	false	true	Wrong	false	n/a	n-backMarkers
844.501787	0.012000	dropped_samples	2531.835436	Dropped 3 samples	n/a	n/a	n/a	n/a	n/a	n/a	3	UoHDataOffsetStream
845.406858	0.000000	4-back	2532.740507	Steps:4 KeyPress:False Matched:False	1	4	false	false	Correct	false	n/a	n-backMarkers
845.825813	0.012000	dropped_samples	2533.159462	Dropped 3 samples	n/a	n/a	n/a	n/a	n/a	n/a	3	UoHDataOffsetStream
846.733195	0.004000	dropped_samples	2534.066844	Dropped 1 samples	n/a	n/a	n/a	n/a	n/a	n/a	1	UoHDataOffsetStream
847.107518	0.000000	4-back	2534.441168	Steps:4 KeyPress:False Matched:False	1	4	false	false	Correct	false	n/a	n-backMarkers
847.167865	0.008000	dropped_samples	2534.501515	Dropped 2 samples	n/a	n/a	n/a	n/a	n/a	n/a	2	UoHDataOffsetStream
848.388516	0.004000	dropped_samples	2535.722165	Dropped 1 samples	n/a	n/a	n/a	n/a	n/a	n/a	1	UoHDataOffsetStream
848.808106	0.000000	4-back	2536.141755	Steps:4 KeyPress:False Matched:False	1	4	false	false	Correct	false	n/a	n-backMarkers
849.325984	0.004000	dropped_samples	2536.659633	Dropped 1 samples	n/a	n/a	n/a	n/a	n/a	n/a	1	UoHDataOffsetStream
850.024493	0.008000	dropped_samples	2537.358142	Dropped 2 samples	n/a	n/a	n/a	n/a	n/a	n/a	2	UoHDataOffsetStream
850.429527	0.012000	dropped_samples	2537.763177	Dropped 3 samples	n/a	n/a	n/a	n/a	n/a	n/a	3	UoHDataOffsetStream
850.509793	0.000000	4-back	2537.843442	Steps:4 KeyPress:True Matched:True	1	4	true	true	Correct	false	n/a	n-backMarkers
852.209902	0.000000	4-back	2539.543551	Steps:4 KeyPress:False Matched:True	0	4	false	true	Wrong	false	n/a	n-backMarkers
853.383683	0.016000	dropped_samples	2540.717332	Dropped 4 samples	n/a	n/a	n/a	n/a	n/a	n/a	4	UoHDataOffsetStream
