onset	duration	trial_type	timestamp_lsl	marker	response_accuracy	nback_level	key_press	matched	outcome	istutorial	dropped_samples	marker_stream
9.482140	0.004000	dropped_samples	2847.167205	Dropped 1 samples	n/a	n/a	n/a	n/a	n/a	n/a	1	UoHDataOffsetStream
9.891018	0.004000	dropped_samples	2847.576083	Dropped 1 samples	n/a	n/a	n/a	n/a	n/a	n/a	1	UoHDataOffsetStream
11.258124	0.004000	dropped_samples	2848.943189	Dropped 1 samples	n/a	n/a	n/a	n/a	n/a	n/a	1	UoHDataOffsetStream
19.465786	0.012000	dropped_samples	2857.150851	Dropped 3 samples	n/a	n/a	n/a	n/a	n/a	n/a	3	UoHDataOffsetStream
20.496322	0.004000	dropped_samples	2858.181387	Dropped 1 samples	n/a	n/a	n/a	n/a	n/a	n/a	1	UoHDataOffsetStream
21.195374	0.004000	dropped_samples	2858.880439	Dropped 1 samples	n/a	n/a	n/a	n/a	n/a	n/a	1	UoHDataOffsetStream
23.518530	0.004000	dropped_samples	2861.203595	Dropped 1 samples	n/a	n/a	n/a	n/a	n/a	n/a	1	UoHDataOffsetStream
37.151402	0.012000	dropped_samples	2874.836467	Dropped 3 samples	n/a	n/a	n/a	n/a	n/a	n/a	3	UoHDataOffsetStream
40.247161	0.004000	dropped_samples	2877.932226	Dropped 1 samples	n/a	n/a	n/a	n/a	n/a	n/a	1	UoHDataOffsetStream
41.926791	0.012000	dropped_samples	2879.611856	Dropped 3 samples	n/a	n/a	n/a	n/a	n/a	n/a	3	UoHDataOffsetStream
52.366246	0.004000	dropped_samples	2890.051311	Dropped 1 samples	n/a	n/a	n/a	n/a	n/a	n/a	1	UoHDataOffsetStream
55.417981	0.004000	dropped_samples	2893.103046	Dropped 1 samples	n/a	n/a	n/a	n/a	n/a	n/a	1	UoHDataOffsetStream
56.062544	0.012000	dropped_samples	2893.747609	Dropped 3 samples	n/a	n/a	n/a	n/a	n/a	n/a	3	UoHDataOffsetStream
57.170941	0.004000	dropped_samples	2894.856006	Dropped 1 samples	n/a	n/a	n/a	n/a	n/a	n/a	1	UoHDataOffsetStream
59.177424	0.024000	dropped_samples	2896.862489	Dropped 6 samples	n/a	n/a	n/a	n/a	n/a	n/a	6	UoHDataOffsetStream
59.207125	0.032000	dropped_samples	2896.892190	Dropped 8 samples	n/a	n/a	n/a	n/a	n/a	n/a	8	UoHDataOffsetStream
60.253453	0.024000	dropped_samples	2897.938518	Dropped 6 samples	n/a	n/a	n/a	n/a	n/a	n/a	6	UoHDataOffsetStream
60.286311	0.032000	dropped_samples	2897.971376	Dropped 8 samples	n/a	n/a	n/a	n/a	n/a	n/a	8	UoHDataOffsetStream
62.440845	0.016000	dropped_samples	2900.125910	Dropped 4 samples	n/a	n/a	n/a	n/a	n/a	n/a	4	UoHDataOffsetStream
62.473776	0.008000	dropped_samples	2900.158841	Dropped 2 samples	n/a	n/a	n/a	n/a	n/a	n/a	2	UoHDataOffsetStream
63.770752	0.012000	dropped_samples	2901.455817	Dropped 3 samples	n/a	n/a	n/a	n/a	n/a	n/a	3	UoHDataOffsetStream
63.816475	0.092000	dropped_samples	2901.501540	Dropped 23 samples	n/a	n/a	n/a	n/a	n/a	n/a	23	UoHDataOffsetStream
67.166842	0.012000	dropped_samples	2904.851907	Dropped 3 samples	n/a	n/a	n/a	n/a	n/a	n/a	3	UoHDataOffsetStream
67.286668	0.196000	dropped_samples	2904.971733	Dropped 49 samples	n/a	n/a	n/a	n/a	n/a	n/a	49	UoHDataOffsetStream
67.288852	0.160000	dropped_samples	2904.973917	Dropped 40 samples	n/a	n/a	n/a	n/a	n/a	n/a	40	UoHDataOffsetStream
67.322363	0.160000	dropped_samples	2905.007428	Dropped 40 samples	n/a	n/a	n/a	n/a	n/a	n/a	40	UoHDataOffsetStream
68.806798	0.012000	dropped_samples	2906.491863	Dropped 3 samples	n/a	n/a	n/a	n/a	n/a	n/a	3	UoHDataOffsetStream
69.314586	0.008000	dropped_samples	2906.999651	Dropped 2 samples	n/a	n/a	n/a	n/a	n/a	n/a	2	UoHDataOffsetStream
73.105249	0.012000	dropped_samples	2910.790314	Dropped 3 samples	n/a	n/a	n/a	n/a	n/a	n/a	3	UoHDataOffsetStream
73.192336	0.176000	dropped_samples	2910.877401	Dropped 44 samples	n/a	n/a	n/a	n/a	n/a	n/a	44	UoHDataOffsetStream
73.194133	0.164000	dropped_samples	2910.879198	Dropped 41 samples	n/a	n/a	n/a	n/a	n/a	n/a	41	UoHDataOffsetStream
73.245445	0.120000	dropped_samples	2910.930510	Dropped 30 samples	n/a	n/a	n/a	n/a	n/a	n/a	30	UoHDataOffsetStream
84.094881	0.004000	dropped_samples	2921.779946	Dropped 1 samples	n/a	n/a	n/a	n/a	n/a	n/a	1	UoHDataOffsetStream
86.184707	0.004000	dropped_samples	2923.869772	Dropped 1 samples	n/a	n/a	n/a	n/a	n/a	n/a	1	UoHDataOffsetStream
87.146665	0.012000	dropped_samples	2924.831730	Dropped 3 samples	n/a	n/a	n/a	n/a	n/a	n/a	3	UoHDataOffsetStream
87.214972	0.004000	dropped_samples	2924.900037	Dropped 1 samples	n/a	n/a	n/a	n/a	n/a	n/a	1	UoHDataOffsetStream
88.308124	0.004000	dropped_samples	2925.993189	Dropped 1 samples	n/a	n/a	n/a	n/a	n/a	n/a	1	UoHDataOffsetStream
88.485010	0.008000	dropped_samples	2926.170075	Dropped 2 samples	n/a	n/a	n/a	n/a	n/a	n/a	2	UoHDataOffsetStream
88.538183	0.004000	dropped_samples	2926.223248	Dropped 1 samples	n/a	n/a	n/a	n/a	n/a	n/a	1	UoHDataOffsetStream
88.640009	0.008000	dropped_samples	2926.325074	Dropped 2 samples	n/a	n/a	n/a	n/a	n/a	n/a	2	UoHDataOffsetStream
89.052950	0.016000	dropped_samples	2926.738015	Dropped 4 samples	n/a	n/a	n/a	n/a	n/a	n/a	4	UoHDataOffsetStream
89.080543	0.008000	dropped_samples	2926.765608	Dropped 2 samples	n/a	n/a	n/a	n/a	n/a	n/a	2	UoHDataOffsetStream
89.144690	0.012000	dropped_samples	2926.829755	Dropped 3 samples	n/a	n/a	n/a	n/a	n/a	n/a	3	UoHDataOffsetStream
89.163305	0.008000	dropped_samples	2926.848370	Dropped 2 samples	n/a	n/a	n/a	n/a	n/a	n/a	2	UoHDataOffsetStream
89.874598	0.012000	dropped_samples	2927.559663	Dropped 3 samples	n/a	n/a	n/a	n/a	n/a	n/a	3	UoHDataOffsetStream
90.010081	0.012000	dropped_samples	2927.695146	Dropped 3 samples	n/a	n/a	n/a	n/a	n/a	n/a	3	UoHDataOffsetStream
90.120375	0.020000	dropped_samples	2927.805440	Dropped 5 samples	n/a	n/a	n/a	n/a	n/a	n/a	5	UoHDataOffsetStream
90.291179	0.012000	dropped_samples	2927.976244	Dropped 3 samples	n/a	n/a	n/a	n/a	n/a	n/a	3	UoHDataOffsetStream
91.658374	0.004000	dropped_samples	2929.343439	Dropped 1 samples	n/a	n/a	n/a	n/a	n/a	n/a	1	UoHDataOffsetStream
93.674933	0.012000	dropped_samples	2931.359998	Dropped 3 samples	n/a	n/a	n/a	n/a	n/a	n/a	3	UoHDataOffsetStream
94.818241	0.028000	dropped_samples	2932.503306	Dropped 7 samples	n/a	n/a	n/a	n/a	n/a	n/a	7	UoHDataOffsetStream
94.827973	0.012000	dropped_samples	2932.513038	Dropped 3 samples	n/a	n/a	n/a	n/a	n/a	n/a	3	UoHDataOffsetStream
94.889824	0.044000	dropped_samples	2932.574889	Dropped 11 samples	n/a	n/a	n/a	n/a	n/a	n/a	11	UoHDataOffsetStream
96.199268	0.024000	dropped_samples	2933.884333	Dropped 6 samples	n/a	n/a	n/a	n/a	n/a	n/a	6	UoHDataOffsetStream
96.200668	0.004000	dropped_samples	2933.885733	Dropped 1 samples	n/a	n/a	n/a	n/a	n/a	n/a	1	UoHDataOffsetStream
96.243284	0.016000	dropped_samples	2933.928349	Dropped 4 samples	n/a	n/a	n/a	n/a	n/a	n/a	4	UoHDataOffsetStream
97.874163	0.004000	dropped_samples	2935.559228	Dropped 1 samples	n/a	n/a	n/a	n/a	n/a	n/a	1	UoHDataOffsetStream
100.442748	0.004000	dropped_samples	2938.127813	Dropped 1 samples	n/a	n/a	n/a	n/a	n/a	n/a	1	UoHDataOffsetStream
100.794859	0.000000	started_tutorial_n_back	2938.479924	Started tutorial n-back	n/a	n/a	n/a	n/a	n/a	true	n/a	n-backMarkers
101.570464	0.004000	dropped_samples	2939.255529	Dropped 1 samples	n/a	n/a	n/a	n/a	n/a	n/a	1	UoHDataOffsetStream
103.943499	0.004000	dropped_samples	2941.628564	Dropped 1 samples	n/a	n/a	n/a	n/a	n/a	n/a	1	UoHDataOffsetStream
111.839032	0.008000	dropped_samples	2949.524097	Dropped 2 samples	n/a	n/a	n/a	n/a	n/a	n/a	2	UoHDataOffsetStream
112.785525	0.012000	dropped_samples	2950.470591	Dropped 3 samples	n/a	n/a	n/a	n/a	n/a	n/a	3	UoHDataOffsetStream
112.800202	0.024000	dropped_samples	2950.485267	Dropped 6 samples	n/a	n/a	n/a	n/a	n/a	n/a	6	UoHDataOffsetStream
112.805348	0.004000	dropped_samples	2950.490413	Dropped 1 samples	n/a	n/a	n/a	n/a	n/a	n/a	1	UoHDataOffsetStream
112.849911	0.036000	dropped_samples	2950.534976	Dropped 9 samples	n/a	n/a	n/a	n/a	n/a	n/a	9	UoHDataOffsetStream
113.377739	0.016000	dropped_samples	2951.062804	Dropped 4 samples	n/a	n/a	n/a	n/a	n/a	n/a	4	UoHDataOffsetStream
113.656579	0.028000	dropped_samples	2951.341644	Dropped 7 samples	n/a	n/a	n/a	n/a	n/a	n/a	7	UoHDataOffsetStream
114.364150	0.004000	dropped_samples	2952.049215	Dropped 1 samples	n/a	n/a	n/a	n/a	n/a	n/a	1	UoHDataOffsetStream
114.820697	0.012000	dropped_samples	2952.505762	Dropped 3 samples	n/a	n/a	n/a	n/a	n/a	n/a	3	UoHDataOffsetStream
114.934291	0.012000	dropped_samples	2952.619356	Dropped 3 samples	n/a	n/a	n/a	n/a	n/a	n/a	3	UoHDataOffsetStream
114.941468	0.016000	dropped_samples	2952.626533	Dropped 4 samples	n/a	n/a	n/a	n/a	n/a	n/a	4	UoHDataOffsetStream
115.065317	0.040000	dropped_samples	2952.750382	Dropped 10 samples	n/a	n/a	n/a	n/a	n/a	n/a	10	UoHDataOffsetStream
115.105738	0.012000	dropped_samples	2952.790803	Dropped 3 samples	n/a	n/a	n/a	n/a	n/a	n/a	3	UoHDataOffsetStream
116.018732	0.008000	dropped_samples	2953.703797	Dropped 2 samples	n/a	n/a	n/a	n/a	n/a	n/a	2	UoHDataOffsetStream
116.241946	0.012000	dropped_samples	2953.927011	Dropped 3 samples	n/a	n/a	n/a	n/a	n/a	n/a	3	UoHDataOffsetStream
116.649956	0.012000	dropped_samples	2954.335021	Dropped 3 samples	n/a	n/a	n/a	n/a	n/a	n/a	3	UoHDataOffsetStream
117.527549	0.004000	dropped_samples	2955.212614	Dropped 1 samples	n/a	n/a	n/a	n/a	n/a	n/a	1	UoHDataOffsetStream
119.333524	0.004000	dropped_samples	2957.018589	Dropped 1 samples	n/a	n/a	n/a	n/a	n/a	n/a	1	UoHDataOffsetStream
119.378071	0.164000	dropped_samples	2957.063136	Dropped 41 samples	n/a	n/a	n/a	n/a	n/a	n/a	41	UoHDataOffsetStream
120.240628	0.020000	dropped_samples	2957.925693	Dropped 5 samples	n/a	n/a	n/a	n/a	n/a	n/a	5	UoHDataOffsetStream
120.245552	0.012000	dropped_samples	2957.930617	Dropped 3 samples	n/a	n/a	n/a	n/a	n/a	n/a	3	UoHDataOffsetStream
120.291224	0.024000	dropped_samples	2957.976289	Dropped 6 samples	n/a	n/a	n/a	n/a	n/a	n/a	6	UoHDataOffsetStream
122.063732	0.012000	dropped_samples	2959.748797	Dropped 3 samples	n/a	n/a	n/a	n/a	n/a	n/a	3	UoHDataOffsetStream
123.914389	0.012000	dropped_samples	2961.599454	Dropped 3 samples	n/a	n/a	n/a	n/a	n/a	n/a	3	UoHDataOffsetStream
124.618816	0.012000	dropped_samples	2962.303881	Dropped 3 samples	n/a	n/a	n/a	n/a	n/a	n/a	3	UoHDataOffsetStream
124.664706	0.028000	dropped_samples	2962.349771	Dropped 7 samples	n/a	n/a	n/a	n/a	n/a	n/a	7	UoHDataOffsetStream
125.654575	0.020000	dropped_samples	2963.339640	Dropped 5 samples	n/a	n/a	n/a	n/a	n/a	n/a	5	UoHDataOffsetStream
125.691567	0.112000	dropped_samples	2963.376632	Dropped 28 samples	n/a	n/a	n/a	n/a	n/a	n/a	28	UoHDataOffsetStream
125.965253	0.004000	dropped_samples	2963.650318	Dropped 1 samples	n/a	n/a	n/a	n/a	n/a	n/a	1	UoHDataOffsetStream
125.970223	0.016000	dropped_samples	2963.655288	Dropped 4 samples	n/a	n/a	n/a	n/a	n/a	n/a	4	UoHDataOffsetStream
126.178250	0.008000	dropped_samples	2963.863315	Dropped 2 samples	n/a	n/a	n/a	n/a	n/a	n/a	2	UoHDataOffsetStream
126.218896	0.028000	dropped_samples	2963.903961	Dropped 7 samples	n/a	n/a	n/a	n/a	n/a	n/a	7	UoHDataOffsetStream
126.575549	0.004000	dropped_samples	2964.260614	Dropped 1 samples	n/a	n/a	n/a	n/a	n/a	n/a	1	UoHDataOffsetStream
128.235550	0.012000	dropped_samples	2965.920615	Dropped 3 samples	n/a	n/a	n/a	n/a	n/a	n/a	3	UoHDataOffsetStream
130.484201	0.008000	dropped_samples	2968.169266	Dropped 2 samples	n/a	n/a	n/a	n/a	n/a	n/a	2	UoHDataOffsetStream
130.672630	0.008000	dropped_samples	2968.357695	Dropped 2 samples	n/a	n/a	n/a	n/a	n/a	n/a	2	UoHDataOffsetStream
130.706259	0.012000	dropped_samples	2968.391324	Dropped 3 samples	n/a	n/a	n/a	n/a	n/a	n/a	3	UoHDataOffsetStream
131.160006	0.012000	dropped_samples	2968.845071	Dropped 3 samples	n/a	n/a	n/a	n/a	n/a	n/a	3	UoHDataOffsetStream
131.165642	0.012000	dropped_samples	2968.850707	Dropped 3 samples	n/a	n/a	n/a	n/a	n/a	n/a	3	UoHDataOffsetStream
131.209143	0.028000	dropped_samples	2968.894208	Dropped 7 samples	n/a	n/a	n/a	n/a	n/a	n/a	7	UoHDataOffsetStream
132.645457	0.012000	dropped_samples	2970.330522	Dropped 3 samples	n/a	n/a	n/a	n/a	n/a	n/a	3	UoHDataOffsetStream
132.653692	0.024000	dropped_samples	2970.338757	Dropped 6 samples	n/a	n/a	n/a	n/a	n/a	n/a	6	UoHDataOffsetStream
132.698551	0.112000	dropped_samples	2970.383616	Dropped 28 samples	n/a	n/a	n/a	n/a	n/a	n/a	28	UoHDataOffsetStream
134.519739	0.004000	dropped_samples	2972.204804	Dropped 1 samples	n/a	n/a	n/a	n/a	n/a	n/a	1	UoHDataOffsetStream
135.867461	0.004000	dropped_samples	2973.552526	Dropped 1 samples	n/a	n/a	n/a	n/a	n/a	n/a	1	UoHDataOffsetStream
142.561694	0.004000	dropped_samples	2980.246759	Dropped 1 samples	n/a	n/a	n/a	n/a	n/a	n/a	1	UoHDataOffsetStream
145.535430	0.004000	dropped_samples	2983.220495	Dropped 1 samples	n/a	n/a	n/a	n/a	n/a	n/a	1	UoHDataOffsetStream
151.131083	0.004000	dropped_samples	2988.816148	Dropped 1 samples	n/a	n/a	n/a	n/a	n/a	n/a	1	UoHDataOffsetStream
155.159402	0.008000	dropped_samples	2992.844467	Dropped 2 samples	n/a	n/a	n/a	n/a	n/a	n/a	2	UoHDataOffsetStream
164.783477	0.004000	dropped_samples	3002.468542	Dropped 1 samples	n/a	n/a	n/a	n/a	n/a	n/a	1	UoHDataOffsetStream
165.935893	0.008000	dropped_samples	3003.620958	Dropped 2 samples	n/a	n/a	n/a	n/a	n/a	n/a	2	UoHDataOffsetStream
166.224555	0.012000	dropped_samples	3003.909620	Dropped 3 samples	n/a	n/a	n/a	n/a	n/a	n/a	3	UoHDataOffsetStream
167.129530	0.020000	dropped_samples	3004.814595	Dropped 5 samples	n/a	n/a	n/a	n/a	n/a	n/a	5	UoHDataOffsetStream
167.130105	0.012000	dropped_samples	3004.815170	Dropped 3 samples	n/a	n/a	n/a	n/a	n/a	n/a	3	UoHDataOffsetStream
167.161463	0.096000	dropped_samples	3004.846528	Dropped 24 samples	n/a	n/a	n/a	n/a	n/a	n/a	24	UoHDataOffsetStream
167.820763	0.000000	1-back	3005.505828	Steps:1 KeyPress:False Matched:False	1	1	false	false	Correct	true	n/a	n-backMarkers
168.258549	0.024000	dropped_samples	3005.943614	Dropped 6 samples	n/a	n/a	n/a	n/a	n/a	n/a	6	UoHDataOffsetStream
168.259141	0.008000	dropped_samples	3005.944206	Dropped 2 samples	n/a	n/a	n/a	n/a	n/a	n/a	2	UoHDataOffsetStream
168.359908	0.012000	dropped_samples	3006.044973	Dropped 3 samples	n/a	n/a	n/a	n/a	n/a	n/a	3	UoHDataOffsetStream
168.411421	0.036000	dropped_samples	3006.096486	Dropped 9 samples	n/a	n/a	n/a	n/a	n/a	n/a	9	UoHDataOffsetStream
169.521143	0.000000	1-back	3007.206208	Steps:1 KeyPress:False Matched:False	1	1	false	false	Correct	true	n/a	n-backMarkers
169.680968	0.012000	dropped_samples	3007.366033	Dropped 3 samples	n/a	n/a	n/a	n/a	n/a	n/a	3	UoHDataOffsetStream
171.221604	0.000000	1-back	3008.906669	Steps:1 KeyPress:False Matched:True	0	1	false	true	Wrong	true	n/a	n-backMarkers
172.922218	0.000000	1-back	3010.607283	Steps:1 KeyPress:False Matched:False	1	1	false	false	Correct	true	n/a	n-backMarkers
173.111489	0.012000	dropped_samples	3010.796554	Dropped 3 samples	n/a	n/a	n/a	n/a	n/a	n/a	3	UoHDataOffsetStream
173.118828	0.016000	dropped_samples	3010.803893	Dropped 4 samples	n/a	n/a	n/a	n/a	n/a	n/a	4	UoHDataOffsetStream
173.162375	0.092000	dropped_samples	3010.847440	Dropped 23 samples	n/a	n/a	n/a	n/a	n/a	n/a	23	UoHDataOffsetStream
174.217354	0.028000	dropped_samples	3011.902419	Dropped 7 samples	n/a	n/a	n/a	n/a	n/a	n/a	7	UoHDataOffsetStream
174.624562	0.000000	1-back	3012.309627	Steps:1 KeyPress:False Matched:False	1	1	false	false	Correct	true	n/a	n-backMarkers
176.233656	0.012000	dropped_samples	3013.918721	Dropped 3 samples	n/a	n/a	n/a	n/a	n/a	n/a	3	UoHDataOffsetStream
176.325134	0.000000	1-back	3014.010199	Steps:1 KeyPress:False Matched:False	1	1	false	false	Correct	true	n/a	n-backMarkers
176.546278	0.012000	dropped_samples	3014.231343	Dropped 3 samples	n/a	n/a	n/a	n/a	n/a	n/a	3	UoHDataOffsetStream
178.026211	0.000000	1-back	3015.711276	Steps:1 KeyPress:False Matched:False	1	1	false	false	Correct	true	n/a	n-backMarkers
178.720808	0.028000	dropped_samples	3016.405873	Dropped 7 samples	n/a	n/a	n/a	n/a	n/a	n/a	7	UoHDataOffsetStream
178.722366	0.012000	dropped_samples	3016.407431	Dropped 3 samples	n/a	n/a	n/a	n/a	n/a	n/a	3	UoHDataOffsetStream
178.753274	0.028000	dropped_samples	3016.438339	Dropped 7 samples	n/a	n/a	n/a	n/a	n/a	n/a	7	UoHDataOffsetStream
179.568617	0.012000	dropped_samples	3017.253682	Dropped 3 samples	n/a	n/a	n/a	n/a	n/a	n/a	3	UoHDataOffsetStream
179.727127	0.000000	1-back	3017.412192	Steps:1 KeyPress:False Matched:False	1	1	false	false	Correct	true	n/a	n-backMarkers
180.603902	0.004000	dropped_samples	3018.288967	Dropped 1 samples	n/a	n/a	n/a	n/a	n/a	n/a	1	UoHDataOffsetStream
180.935843	0.004000	dropped_samples	3018.620908	Dropped 1 samples	n/a	n/a	n/a	n/a	n/a	n/a	1	UoHDataOffsetStream
181.427285	0.000000	1-back	3019.112351	Steps:1 KeyPress:False Matched:False	1	1	false	false	Correct	true	n/a	n-backMarkers
183.128289	0.000000	1-back	3020.813355	Steps:1 KeyPress:False Matched:True	0	1	false	true	Wrong	true	n/a	n-backMarkers
183.285638	0.012000	dropped_samples	3020.970703	Dropped 3 samples	n/a	n/a	n/a	n/a	n/a	n/a	3	UoHDataOffsetStream
183.316750	0.012000	dropped_samples	3021.001815	Dropped 3 samples	n/a	n/a	n/a	n/a	n/a	n/a	3	UoHDataOffsetStream
183.318121	0.012000	dropped_samples	3021.003186	Dropped 3 samples	n/a	n/a	n/a	n/a	n/a	n/a	3	UoHDataOffsetStream
183.362648	0.020000	dropped_samples	3021.047713	Dropped 5 samples	n/a	n/a	n/a	n/a	n/a	n/a	5	UoHDataOffsetStream
184.828857	0.000000	1-back	3022.513922	Steps:1 KeyPress:False Matched:False	1	1	false	false	Correct	true	n/a	n-backMarkers
185.906506	0.004000	dropped_samples	3023.591571	Dropped 1 samples	n/a	n/a	n/a	n/a	n/a	n/a	1	UoHDataOffsetStream
186.530995	0.000000	1-back	3024.216060	Steps:1 KeyPress:False Matched:False	1	1	false	false	Correct	true	n/a	n-backMarkers
188.232130	0.000000	1-back	3025.917195	Steps:1 KeyPress:False Matched:True	0	1	false	true	Wrong	true	n/a	n-backMarkers
188.640957	0.004000	dropped_samples	3026.326022	Dropped 1 samples	n/a	n/a	n/a	n/a	n/a	n/a	1	UoHDataOffsetStream
189.933200	0.000000	1-back	3027.618265	Steps:1 KeyPress:False Matched:False	1	1	false	false	Correct	true	n/a	n-backMarkers
190.934893	0.012000	dropped_samples	3028.619958	Dropped 3 samples	n/a	n/a	n/a	n/a	n/a	n/a	3	UoHDataOffsetStream
190.984694	0.004000	dropped_samples	3028.669759	Dropped 1 samples	n/a	n/a	n/a	n/a	n/a	n/a	1	UoHDataOffsetStream
190.986055	0.012000	dropped_samples	3028.671120	Dropped 3 samples	n/a	n/a	n/a	n/a	n/a	n/a	3	UoHDataOffsetStream
191.018827	0.064000	dropped_samples	3028.703892	Dropped 16 samples	n/a	n/a	n/a	n/a	n/a	n/a	16	UoHDataOffsetStream
191.633777	0.000000	1-back	3029.318842	Steps:1 KeyPress:True Matched:False	0	1	true	false	Wrong	true	n/a	n-backMarkers
191.736131	0.028000	dropped_samples	3029.421196	Dropped 7 samples	n/a	n/a	n/a	n/a	n/a	n/a	7	UoHDataOffsetStream
191.955906	0.036000	dropped_samples	3029.640971	Dropped 9 samples	n/a	n/a	n/a	n/a	n/a	n/a	9	UoHDataOffsetStream
191.958228	0.012000	dropped_samples	3029.643293	Dropped 3 samples	n/a	n/a	n/a	n/a	n/a	n/a	3	UoHDataOffsetStream
192.000262	0.012000	dropped_samples	3029.685327	Dropped 3 samples	n/a	n/a	n/a	n/a	n/a	n/a	3	UoHDataOffsetStream
192.706757	0.012000	dropped_samples	3030.391822	Dropped 3 samples	n/a	n/a	n/a	n/a	n/a	n/a	3	UoHDataOffsetStream
192.738659	0.012000	dropped_samples	3030.423724	Dropped 3 samples	n/a	n/a	n/a	n/a	n/a	n/a	3	UoHDataOffsetStream
192.747765	0.012000	dropped_samples	3030.432830	Dropped 3 samples	n/a	n/a	n/a	n/a	n/a	n/a	3	UoHDataOffsetStream
192.796231	0.028000	dropped_samples	3030.481296	Dropped 7 samples	n/a	n/a	n/a	n/a	n/a	n/a	7	UoHDataOffsetStream
193.011104	0.008000	dropped_samples	3030.696169	Dropped 2 samples	n/a	n/a	n/a	n/a	n/a	n/a	2	UoHDataOffsetStream
193.334548	0.000000	1-back	3031.019613	Steps:1 KeyPress:False Matched:True	0	1	false	true	Wrong	true	n/a	n-backMarkers
194.139012	0.008000	dropped_samples	3031.824077	Dropped 2 samples	n/a	n/a	n/a	n/a	n/a	n/a	2	UoHDataOffsetStream
195.035928	0.000000	1-back	3032.720993	Steps:1 KeyPress:False Matched:True	0	1	false	true	Wrong	true	n/a	n-backMarkers
196.224025	0.004000	dropped_samples	3033.909090	Dropped 1 samples	n/a	n/a	n/a	n/a	n/a	n/a	1	UoHDataOffsetStream
196.736959	0.000000	1-back	3034.422024	Steps:1 KeyPress:False Matched:False	1	1	false	false	Correct	true	n/a	n-backMarkers
198.050104	0.004000	dropped_samples	3035.735169	Dropped 1 samples	n/a	n/a	n/a	n/a	n/a	n/a	1	UoHDataOffsetStream
198.439335	0.000000	1-back	3036.124400	Steps:1 KeyPress:False Matched:False	1	1	false	false	Correct	true	n/a	n-backMarkers
199.944674	0.004000	dropped_samples	3037.629739	Dropped 1 samples	n/a	n/a	n/a	n/a	n/a	n/a	1	UoHDataOffsetStream
200.140962	0.000000	1-back	3037.826027	Steps:1 KeyPress:True Matched:False	0	1	true	false	Wrong	true	n/a	n-backMarkers
201.843550	0.000000	1-back	3039.528615	Steps:1 KeyPress:True Matched:False	0	1	true	false	Wrong	true	n/a	n-backMarkers
202.446077	0.012000	dropped_samples	3040.131142	Dropped 3 samples	n/a	n/a	n/a	n/a	n/a	n/a	3	UoHDataOffsetStream
203.640951	0.008000	dropped_samples	3041.326016	Dropped 2 samples	n/a	n/a	n/a	n/a	n/a	n/a	2	UoHDataOffsetStream
210.558882	0.000000	2-back	3048.243947	Steps:2 KeyPress:False Matched:False	1	2	false	false	Correct	true	n/a	n-backMarkers
212.259950	0.000000	2-back	3049.945015	Steps:2 KeyPress:False Matched:False	1	2	false	false	Correct	true	n/a	n-backMarkers
213.792533	0.008000	dropped_samples	3051.477598	Dropped 2 samples	n/a	n/a	n/a	n/a	n/a	n/a	2	UoHDataOffsetStream
213.960972	0.000000	2-back	3051.646037	Steps:2 KeyPress:False Matched:False	1	2	false	false	Correct	true	n/a	n-backMarkers
214.646446	0.008000	dropped_samples	3052.331511	Dropped 2 samples	n/a	n/a	n/a	n/a	n/a	n/a	2	UoHDataOffsetStream
214.687935	0.012000	dropped_samples	3052.373000	Dropped 3 samples	n/a	n/a	n/a	n/a	n/a	n/a	3	UoHDataOffsetStream
214.689266	0.004000	dropped_samples	3052.374331	Dropped 1 samples	n/a	n/a	n/a	n/a	n/a	n/a	1	UoHDataOffsetStream
214.730218	0.024000	dropped_samples	3052.415283	Dropped 6 samples	n/a	n/a	n/a	n/a	n/a	n/a	6	UoHDataOffsetStream
215.661896	0.000000	2-back	3053.346961	Steps:2 KeyPress:False Matched:False	1	2	false	false	Correct	true	n/a	n-backMarkers
215.709833	0.012000	dropped_samples	3053.394898	Dropped 3 samples	n/a	n/a	n/a	n/a	n/a	n/a	3	UoHDataOffsetStream
215.749910	0.012000	dropped_samples	3053.434975	Dropped 3 samples	n/a	n/a	n/a	n/a	n/a	n/a	3	UoHDataOffsetStream
215.784491	0.032000	dropped_samples	3053.469556	Dropped 8 samples	n/a	n/a	n/a	n/a	n/a	n/a	8	UoHDataOffsetStream
216.437097	0.004000	dropped_samples	3054.122162	Dropped 1 samples	n/a	n/a	n/a	n/a	n/a	n/a	1	UoHDataOffsetStream
216.699308	0.008000	dropped_samples	3054.384373	Dropped 2 samples	n/a	n/a	n/a	n/a	n/a	n/a	2	UoHDataOffsetStream
216.753242	0.024000	dropped_samples	3054.438307	Dropped 6 samples	n/a	n/a	n/a	n/a	n/a	n/a	6	UoHDataOffsetStream
216.887993	0.004000	dropped_samples	3054.573058	Dropped 1 samples	n/a	n/a	n/a	n/a	n/a	n/a	1	UoHDataOffsetStream
217.362031	0.000000	2-back	3055.047096	Steps:2 KeyPress:True Matched:True	1	2	true	true	Correct	true	n/a	n-backMarkers
218.328479	0.004000	dropped_samples	3056.013544	Dropped 1 samples	n/a	n/a	n/a	n/a	n/a	n/a	1	UoHDataOffsetStream
219.063441	0.000000	2-back	3056.748506	Steps:2 KeyPress:False Matched:False	1	2	false	false	Correct	true	n/a	n-backMarkers
220.629405	0.028000	dropped_samples	3058.314471	Dropped 7 samples	n/a	n/a	n/a	n/a	n/a	n/a	7	UoHDataOffsetStream
220.647038	0.004000	dropped_samples	3058.332103	Dropped 1 samples	n/a	n/a	n/a	n/a	n/a	n/a	1	UoHDataOffsetStream
220.764487	0.000000	2-back	3058.449552	Steps:2 KeyPress:False Matched:False	1	2	false	false	Correct	true	n/a	n-backMarkers
220.803997	0.004000	dropped_samples	3058.489062	Dropped 1 samples	n/a	n/a	n/a	n/a	n/a	n/a	1	UoHDataOffsetStream
221.443972	0.024000	dropped_samples	3059.129037	Dropped 6 samples	n/a	n/a	n/a	n/a	n/a	n/a	6	UoHDataOffsetStream
221.651474	0.012000	dropped_samples	3059.336539	Dropped 3 samples	n/a	n/a	n/a	n/a	n/a	n/a	3	UoHDataOffsetStream
222.465175	0.000000	2-back	3060.150240	Steps:2 KeyPress:True Matched:False	0	2	true	false	Wrong	true	n/a	n-backMarkers
222.600869	0.016000	dropped_samples	3060.285934	Dropped 4 samples	n/a	n/a	n/a	n/a	n/a	n/a	4	UoHDataOffsetStream
222.601798	0.004000	dropped_samples	3060.286863	Dropped 1 samples	n/a	n/a	n/a	n/a	n/a	n/a	1	UoHDataOffsetStream
222.672011	0.012000	dropped_samples	3060.357076	Dropped 3 samples	n/a	n/a	n/a	n/a	n/a	n/a	3	UoHDataOffsetStream
223.035500	0.008000	dropped_samples	3060.720565	Dropped 2 samples	n/a	n/a	n/a	n/a	n/a	n/a	2	UoHDataOffsetStream
224.166070	0.000000	2-back	3061.851135	Steps:2 KeyPress:False Matched:False	1	2	false	false	Correct	true	n/a	n-backMarkers
225.867602	0.000000	2-back	3063.552667	Steps:2 KeyPress:False Matched:False	1	2	false	false	Correct	true	n/a	n-backMarkers
227.568385	0.000000	2-back	3065.253450	Steps:2 KeyPress:True Matched:False	0	2	true	false	Wrong	true	n/a	n-backMarkers
229.269132	0.000000	2-back	3066.954197	Steps:2 KeyPress:False Matched:False	1	2	false	false	Correct	true	n/a	n-backMarkers
230.969327	0.000000	2-back	3068.654392	Steps:2 KeyPress:True Matched:False	0	2	true	false	Wrong	true	n/a	n-backMarkers
232.670080	0.000000	2-back	3070.355145	Steps:2 KeyPress:False Matched:False	1	2	false	false	Correct	true	n/a	n-backMarkers
234.371083	0.000000	2-back	3072.056148	Steps:2 KeyPress:False Matched:True	0	2	false	true	Wrong	true	n/a	n-backMarkers
234.890985	0.008000	dropped_samples	3072.576050	Dropped 2 samples	n/a	n/a	n/a	n/a	n/a	n/a	2	UoHDataOffsetStream
235.608891	0.004000	dropped_samples	3073.293956	Dropped 1 samples	n/a	n/a	n/a	n/a	n/a	n/a	1	UoHDataOffsetStream
236.072146	0.000000	2-back	3073.757211	Steps:2 KeyPress:False Matched:False	1	2	false	false	Correct	true	n/a	n-backMarkers
237.773946	0.000000	2-back	3075.459011	Steps:2 KeyPress:False Matched:False	1	2	false	false	Correct	true	n/a	n-backMarkers
238.347999	0.008000	dropped_samples	3076.033064	Dropped 2 samples	n/a	n/a	n/a	n/a	n/a	n/a	2	UoHDataOffsetStream
239.435928	0.012000	dropped_samples	3077.120993	Dropped 3 samples	n/a	n/a	n/a	n/a	n/a	n/a	3	UoHDataOffsetStream
239.474154	0.000000	2-back	3077.159219	Steps:2 KeyPress:False Matched:False	1	2	false	false	Correct	true	n/a	n-backMarkers
239.510947	0.008000	dropped_samples	3077.196012	Dropped 2 samples	n/a	n/a	n/a	n/a	n/a	n/a	2	UoHDataOffsetStream
239.691141	0.012000	dropped_samples	3077.376206	Dropped 3 samples	n/a	n/a	n/a	n/a	n/a	n/a	3	UoHDataOffsetStream
240.580215	0.004000	dropped_samples	3078.265280	Dropped 1 samples	n/a	n/a	n/a	n/a	n/a	n/a	1	UoHDataOffsetStream
241.175760	0.000000	2-back	3078.860825	Steps:2 KeyPress:True Matched:False	0	2	true	false	Wrong	true	n/a	n-backMarkers
242.332393	0.004000	dropped_samples	3080.017458	Dropped 1 samples	n/a	n/a	n/a	n/a	n/a	n/a	1	UoHDataOffsetStream
242.877346	0.000000	2-back	3080.562411	Steps:2 KeyPress:False Matched:True	0	2	false	true	Wrong	true	n/a	n-backMarkers
245.006049	0.008000	dropped_samples	3082.691114	Dropped 2 samples	n/a	n/a	n/a	n/a	n/a	n/a	2	UoHDataOffsetStream
245.046851	0.012000	dropped_samples	3082.731916	Dropped 3 samples	n/a	n/a	n/a	n/a	n/a	n/a	3	UoHDataOffsetStream
245.091178	0.100000	dropped_samples	3082.776243	Dropped 25 samples	n/a	n/a	n/a	n/a	n/a	n/a	25	UoHDataOffsetStream
245.650123	0.028000	dropped_samples	3083.335188	Dropped 7 samples	n/a	n/a	n/a	n/a	n/a	n/a	7	UoHDataOffsetStream
245.652018	0.012000	dropped_samples	3083.337083	Dropped 3 samples	n/a	n/a	n/a	n/a	n/a	n/a	3	UoHDataOffsetStream
245.691879	0.016000	dropped_samples	3083.376944	Dropped 4 samples	n/a	n/a	n/a	n/a	n/a	n/a	4	UoHDataOffsetStream
246.670469	0.012000	dropped_samples	3084.355534	Dropped 3 samples	n/a	n/a	n/a	n/a	n/a	n/a	3	UoHDataOffsetStream
246.678801	0.024000	dropped_samples	3084.363866	Dropped 6 samples	n/a	n/a	n/a	n/a	n/a	n/a	6	UoHDataOffsetStream
246.722116	0.024000	dropped_samples	3084.407181	Dropped 6 samples	n/a	n/a	n/a	n/a	n/a	n/a	6	UoHDataOffsetStream
247.034585	0.004000	dropped_samples	3084.719650	Dropped 1 samples	n/a	n/a	n/a	n/a	n/a	n/a	1	UoHDataOffsetStream
250.429063	0.008000	dropped_samples	3088.114128	Dropped 2 samples	n/a	n/a	n/a	n/a	n/a	n/a	2	UoHDataOffsetStream
250.698091	0.012000	dropped_samples	3088.383156	Dropped 3 samples	n/a	n/a	n/a	n/a	n/a	n/a	3	UoHDataOffsetStream
250.819891	0.008000	dropped_samples	3088.504956	Dropped 2 samples	n/a	n/a	n/a	n/a	n/a	n/a	2	UoHDataOffsetStream
250.828810	0.008000	dropped_samples	3088.513875	Dropped 2 samples	n/a	n/a	n/a	n/a	n/a	n/a	2	UoHDataOffsetStream
250.872534	0.028000	dropped_samples	3088.557599	Dropped 7 samples	n/a	n/a	n/a	n/a	n/a	n/a	7	UoHDataOffsetStream
251.458665	0.012000	dropped_samples	3089.143730	Dropped 3 samples	n/a	n/a	n/a	n/a	n/a	n/a	3	UoHDataOffsetStream
251.498270	0.016000	dropped_samples	3089.183335	Dropped 4 samples	n/a	n/a	n/a	n/a	n/a	n/a	4	UoHDataOffsetStream
251.577079	0.000000	3-back	3089.262144	Steps:3 KeyPress:False Matched:False	1	3	false	false	Correct	true	n/a	n-backMarkers
251.668304	0.012000	dropped_samples	3089.353369	Dropped 3 samples	n/a	n/a	n/a	n/a	n/a	n/a	3	UoHDataOffsetStream
252.880096	0.012000	dropped_samples	3090.565161	Dropped 3 samples	n/a	n/a	n/a	n/a	n/a	n/a	3	UoHDataOffsetStream
252.955527	0.020000	dropped_samples	3090.640592	Dropped 5 samples	n/a	n/a	n/a	n/a	n/a	n/a	5	UoHDataOffsetStream
252.986700	0.092000	dropped_samples	3090.671765	Dropped 23 samples	n/a	n/a	n/a	n/a	n/a	n/a	23	UoHDataOffsetStream
253.277978	0.000000	3-back	3090.963043	Steps:3 KeyPress:False Matched:False	1	3	false	false	Correct	true	n/a	n-backMarkers
253.323631	0.008000	dropped_samples	3091.008696	Dropped 2 samples	n/a	n/a	n/a	n/a	n/a	n/a	2	UoHDataOffsetStream
254.979070	0.000000	3-back	3092.664135	Steps:3 KeyPress:False Matched:False	1	3	false	false	Correct	true	n/a	n-backMarkers
256.681008	0.000000	3-back	3094.366073	Steps:3 KeyPress:False Matched:False	1	3	false	false	Correct	true	n/a	n-backMarkers
257.102461	0.024000	dropped_samples	3094.787526	Dropped 6 samples	n/a	n/a	n/a	n/a	n/a	n/a	6	UoHDataOffsetStream
257.103736	0.012000	dropped_samples	3094.788801	Dropped 3 samples	n/a	n/a	n/a	n/a	n/a	n/a	3	UoHDataOffsetStream
257.137099	0.092000	dropped_samples	3094.822165	Dropped 23 samples	n/a	n/a	n/a	n/a	n/a	n/a	23	UoHDataOffsetStream
257.583917	0.004000	dropped_samples	3095.268982	Dropped 1 samples	n/a	n/a	n/a	n/a	n/a	n/a	1	UoHDataOffsetStream
257.762094	0.052000	dropped_samples	3095.447159	Dropped 13 samples	n/a	n/a	n/a	n/a	n/a	n/a	13	UoHDataOffsetStream
258.381977	0.000000	3-back	3096.067042	Steps:3 KeyPress:False Matched:False	1	3	false	false	Correct	true	n/a	n-backMarkers
258.785462	0.012000	dropped_samples	3096.470527	Dropped 3 samples	n/a	n/a	n/a	n/a	n/a	n/a	3	UoHDataOffsetStream
258.787252	0.012000	dropped_samples	3096.472317	Dropped 3 samples	n/a	n/a	n/a	n/a	n/a	n/a	3	UoHDataOffsetStream
258.858011	0.012000	dropped_samples	3096.543077	Dropped 3 samples	n/a	n/a	n/a	n/a	n/a	n/a	3	UoHDataOffsetStream
258.859268	0.012000	dropped_samples	3096.544334	Dropped 3 samples	n/a	n/a	n/a	n/a	n/a	n/a	3	UoHDataOffsetStream
258.890041	0.028000	dropped_samples	3096.575106	Dropped 7 samples	n/a	n/a	n/a	n/a	n/a	n/a	7	UoHDataOffsetStream
259.827533	0.012000	dropped_samples	3097.512598	Dropped 3 samples	n/a	n/a	n/a	n/a	n/a	n/a	3	UoHDataOffsetStream
260.083900	0.000000	3-back	3097.768965	Steps:3 KeyPress:False Matched:False	1	3	false	false	Correct	true	n/a	n-backMarkers
260.140014	0.004000	dropped_samples	3097.825079	Dropped 1 samples	n/a	n/a	n/a	n/a	n/a	n/a	1	UoHDataOffsetStream
261.785517	0.000000	3-back	3099.470582	Steps:3 KeyPress:True Matched:False	0	3	true	false	Wrong	true	n/a	n-backMarkers
263.022816	0.012000	dropped_samples	3100.707881	Dropped 3 samples	n/a	n/a	n/a	n/a	n/a	n/a	3	UoHDataOffsetStream
263.131883	0.012000	dropped_samples	3100.816948	Dropped 3 samples	n/a	n/a	n/a	n/a	n/a	n/a	3	UoHDataOffsetStream
263.186977	0.104000	dropped_samples	3100.872042	Dropped 26 samples	n/a	n/a	n/a	n/a	n/a	n/a	26	UoHDataOffsetStream
263.487040	0.000000	3-back	3101.172105	Steps:3 KeyPress:True Matched:False	0	3	true	false	Wrong	true	n/a	n-backMarkers
263.524008	0.016000	dropped_samples	3101.209074	Dropped 4 samples	n/a	n/a	n/a	n/a	n/a	n/a	4	UoHDataOffsetStream
263.960582	0.012000	dropped_samples	3101.645647	Dropped 3 samples	n/a	n/a	n/a	n/a	n/a	n/a	3	UoHDataOffsetStream
264.002421	0.008000	dropped_samples	3101.687486	Dropped 2 samples	n/a	n/a	n/a	n/a	n/a	n/a	2	UoHDataOffsetStream
264.470116	0.012000	dropped_samples	3102.155181	Dropped 3 samples	n/a	n/a	n/a	n/a	n/a	n/a	3	UoHDataOffsetStream
264.629759	0.012000	dropped_samples	3102.314824	Dropped 3 samples	n/a	n/a	n/a	n/a	n/a	n/a	3	UoHDataOffsetStream
264.676745	0.016000	dropped_samples	3102.361810	Dropped 4 samples	n/a	n/a	n/a	n/a	n/a	n/a	4	UoHDataOffsetStream
265.188933	0.000000	3-back	3102.873998	Steps:3 KeyPress:True Matched:False	0	3	true	false	Wrong	true	n/a	n-backMarkers
265.286140	0.012000	dropped_samples	3102.971205	Dropped 3 samples	n/a	n/a	n/a	n/a	n/a	n/a	3	UoHDataOffsetStream
265.384495	0.012000	dropped_samples	3103.069560	Dropped 3 samples	n/a	n/a	n/a	n/a	n/a	n/a	3	UoHDataOffsetStream
265.418356	0.008000	dropped_samples	3103.103421	Dropped 2 samples	n/a	n/a	n/a	n/a	n/a	n/a	2	UoHDataOffsetStream
266.043389	0.004000	dropped_samples	3103.728454	Dropped 1 samples	n/a	n/a	n/a	n/a	n/a	n/a	1	UoHDataOffsetStream
266.355914	0.012000	dropped_samples	3104.040979	Dropped 3 samples	n/a	n/a	n/a	n/a	n/a	n/a	3	UoHDataOffsetStream
266.858774	0.012000	dropped_samples	3104.543839	Dropped 3 samples	n/a	n/a	n/a	n/a	n/a	n/a	3	UoHDataOffsetStream
266.890001	0.000000	3-back	3104.575066	Steps:3 KeyPress:False Matched:False	1	3	false	false	Correct	true	n/a	n-backMarkers
267.171714	0.012000	dropped_samples	3104.856779	Dropped 3 samples	n/a	n/a	n/a	n/a	n/a	n/a	3	UoHDataOffsetStream
267.576768	0.012000	dropped_samples	3105.261833	Dropped 3 samples	n/a	n/a	n/a	n/a	n/a	n/a	3	UoHDataOffsetStream
268.566256	0.012000	dropped_samples	3106.251321	Dropped 3 samples	n/a	n/a	n/a	n/a	n/a	n/a	3	UoHDataOffsetStream
268.591914	0.000000	3-back	3106.276979	Steps:3 KeyPress:False Matched:False	1	3	false	false	Correct	true	n/a	n-backMarkers
268.656710	0.024000	dropped_samples	3106.341775	Dropped 6 samples	n/a	n/a	n/a	n/a	n/a	n/a	6	UoHDataOffsetStream
268.715557	0.012000	dropped_samples	3106.400622	Dropped 3 samples	n/a	n/a	n/a	n/a	n/a	n/a	3	UoHDataOffsetStream
269.720682	0.012000	dropped_samples	3107.405747	Dropped 3 samples	n/a	n/a	n/a	n/a	n/a	n/a	3	UoHDataOffsetStream
269.723516	0.012000	dropped_samples	3107.408581	Dropped 3 samples	n/a	n/a	n/a	n/a	n/a	n/a	3	UoHDataOffsetStream
269.764111	0.036000	dropped_samples	3107.449176	Dropped 9 samples	n/a	n/a	n/a	n/a	n/a	n/a	9	UoHDataOffsetStream
270.293038	0.000000	3-back	3107.978103	Steps:3 KeyPress:False Matched:False	1	3	false	false	Correct	true	n/a	n-backMarkers
270.409624	0.012000	dropped_samples	3108.094689	Dropped 3 samples	n/a	n/a	n/a	n/a	n/a	n/a	3	UoHDataOffsetStream
270.587681	0.008000	dropped_samples	3108.272746	Dropped 2 samples	n/a	n/a	n/a	n/a	n/a	n/a	2	UoHDataOffsetStream
270.660943	0.008000	dropped_samples	3108.346008	Dropped 2 samples	n/a	n/a	n/a	n/a	n/a	n/a	2	UoHDataOffsetStream
270.696732	0.012000	dropped_samples	3108.381797	Dropped 3 samples	n/a	n/a	n/a	n/a	n/a	n/a	3	UoHDataOffsetStream
271.155689	0.008000	dropped_samples	3108.840754	Dropped 2 samples	n/a	n/a	n/a	n/a	n/a	n/a	2	UoHDataOffsetStream
271.993999	0.000000	3-back	3109.679064	Steps:3 KeyPress:True Matched:False	0	3	true	false	Wrong	true	n/a	n-backMarkers
273.289469	0.008000	dropped_samples	3110.974534	Dropped 2 samples	n/a	n/a	n/a	n/a	n/a	n/a	2	UoHDataOffsetStream
273.695217	0.000000	3-back	3111.380282	Steps:3 KeyPress:False Matched:True	0	3	false	true	Wrong	true	n/a	n-backMarkers
274.104917	0.008000	dropped_samples	3111.789982	Dropped 2 samples	n/a	n/a	n/a	n/a	n/a	n/a	2	UoHDataOffsetStream
274.178203	0.004000	dropped_samples	3111.863268	Dropped 1 samples	n/a	n/a	n/a	n/a	n/a	n/a	1	UoHDataOffsetStream
274.417555	0.016000	dropped_samples	3112.102620	Dropped 4 samples	n/a	n/a	n/a	n/a	n/a	n/a	4	UoHDataOffsetStream
274.586733	0.012000	dropped_samples	3112.271798	Dropped 3 samples	n/a	n/a	n/a	n/a	n/a	n/a	3	UoHDataOffsetStream
274.730063	0.008000	dropped_samples	3112.415128	Dropped 2 samples	n/a	n/a	n/a	n/a	n/a	n/a	2	UoHDataOffsetStream
275.396634	0.000000	3-back	3113.081699	Steps:3 KeyPress:False Matched:False	1	3	false	false	Correct	true	n/a	n-backMarkers
275.498160	0.008000	dropped_samples	3113.183225	Dropped 2 samples	n/a	n/a	n/a	n/a	n/a	n/a	2	UoHDataOffsetStream
275.566686	0.016000	dropped_samples	3113.251751	Dropped 4 samples	n/a	n/a	n/a	n/a	n/a	n/a	4	UoHDataOffsetStream
275.819422	0.012000	dropped_samples	3113.504487	Dropped 3 samples	n/a	n/a	n/a	n/a	n/a	n/a	3	UoHDataOffsetStream
275.911287	0.012000	dropped_samples	3113.596352	Dropped 3 samples	n/a	n/a	n/a	n/a	n/a	n/a	3	UoHDataOffsetStream
275.955532	0.008000	dropped_samples	3113.640597	Dropped 2 samples	n/a	n/a	n/a	n/a	n/a	n/a	2	UoHDataOffsetStream
276.701293	0.008000	dropped_samples	3114.386358	Dropped 2 samples	n/a	n/a	n/a	n/a	n/a	n/a	2	UoHDataOffsetStream
276.702585	0.012000	dropped_samples	3114.387650	Dropped 3 samples	n/a	n/a	n/a	n/a	n/a	n/a	3	UoHDataOffsetStream
276.708134	0.012000	dropped_samples	3114.393199	Dropped 3 samples	n/a	n/a	n/a	n/a	n/a	n/a	3	UoHDataOffsetStream
276.746568	0.032000	dropped_samples	3114.431633	Dropped 8 samples	n/a	n/a	n/a	n/a	n/a	n/a	8	UoHDataOffsetStream
277.097836	0.000000	3-back	3114.782901	Steps:3 KeyPress:False Matched:False	1	3	false	false	Correct	true	n/a	n-backMarkers
277.586369	0.008000	dropped_samples	3115.271434	Dropped 2 samples	n/a	n/a	n/a	n/a	n/a	n/a	2	UoHDataOffsetStream
278.309055	0.008000	dropped_samples	3115.994120	Dropped 2 samples	n/a	n/a	n/a	n/a	n/a	n/a	2	UoHDataOffsetStream
278.353082	0.004000	dropped_samples	3116.038147	Dropped 1 samples	n/a	n/a	n/a	n/a	n/a	n/a	1	UoHDataOffsetStream
278.714301	0.012000	dropped_samples	3116.399366	Dropped 3 samples	n/a	n/a	n/a	n/a	n/a	n/a	3	UoHDataOffsetStream
278.798179	0.000000	3-back	3116.483244	Steps:3 KeyPress:False Matched:False	1	3	false	false	Correct	true	n/a	n-backMarkers
279.437034	0.008000	dropped_samples	3117.122099	Dropped 2 samples	n/a	n/a	n/a	n/a	n/a	n/a	2	UoHDataOffsetStream
280.179181	0.012000	dropped_samples	3117.864246	Dropped 3 samples	n/a	n/a	n/a	n/a	n/a	n/a	3	UoHDataOffsetStream
280.499217	0.000000	3-back	3118.184282	Steps:3 KeyPress:True Matched:False	0	3	true	false	Wrong	true	n/a	n-backMarkers
280.711898	0.012000	dropped_samples	3118.396963	Dropped 3 samples	n/a	n/a	n/a	n/a	n/a	n/a	3	UoHDataOffsetStream
280.755521	0.060000	dropped_samples	3118.440586	Dropped 15 samples	n/a	n/a	n/a	n/a	n/a	n/a	15	UoHDataOffsetStream
281.547069	0.012000	dropped_samples	3119.232134	Dropped 3 samples	n/a	n/a	n/a	n/a	n/a	n/a	3	UoHDataOffsetStream
282.201370	0.000000	3-back	3119.886435	Steps:3 KeyPress:False Matched:False	1	3	false	false	Correct	true	n/a	n-backMarkers
282.569102	0.012000	dropped_samples	3120.254167	Dropped 3 samples	n/a	n/a	n/a	n/a	n/a	n/a	3	UoHDataOffsetStream
282.658279	0.008000	dropped_samples	3120.343344	Dropped 2 samples	n/a	n/a	n/a	n/a	n/a	n/a	2	UoHDataOffsetStream
282.698659	0.028000	dropped_samples	3120.383724	Dropped 7 samples	n/a	n/a	n/a	n/a	n/a	n/a	7	UoHDataOffsetStream
283.902586	0.000000	3-back	3121.587651	Steps:3 KeyPress:False Matched:False	1	3	false	false	Correct	true	n/a	n-backMarkers
285.340290	0.004000	dropped_samples	3123.025355	Dropped 1 samples	n/a	n/a	n/a	n/a	n/a	n/a	1	UoHDataOffsetStream
286.372255	0.008000	dropped_samples	3124.057320	Dropped 2 samples	n/a	n/a	n/a	n/a	n/a	n/a	2	UoHDataOffsetStream
286.630786	0.008000	dropped_samples	3124.315851	Dropped 2 samples	n/a	n/a	n/a	n/a	n/a	n/a	2	UoHDataOffsetStream
287.382058	0.004000	dropped_samples	3125.067123	Dropped 1 samples	n/a	n/a	n/a	n/a	n/a	n/a	1	UoHDataOffsetStream
287.637245	0.008000	dropped_samples	3125.322310	Dropped 2 samples	n/a	n/a	n/a	n/a	n/a	n/a	2	UoHDataOffsetStream
288.465491	0.012000	dropped_samples	3126.150556	Dropped 3 samples	n/a	n/a	n/a	n/a	n/a	n/a	3	UoHDataOffsetStream
288.528978	0.012000	dropped_samples	3126.214043	Dropped 3 samples	n/a	n/a	n/a	n/a	n/a	n/a	3	UoHDataOffsetStream
288.699899	0.012000	dropped_samples	3126.384964	Dropped 3 samples	n/a	n/a	n/a	n/a	n/a	n/a	3	UoHDataOffsetStream
288.841234	0.004000	dropped_samples	3126.526299	Dropped 1 samples	n/a	n/a	n/a	n/a	n/a	n/a	1	UoHDataOffsetStream
292.107854	0.004000	dropped_samples	3129.792919	Dropped 1 samples	n/a	n/a	n/a	n/a	n/a	n/a	1	UoHDataOffsetStream
292.395919	0.008000	dropped_samples	3130.080984	Dropped 2 samples	n/a	n/a	n/a	n/a	n/a	n/a	2	UoHDataOffsetStream
292.591917	0.000000	4-back	3130.276982	Steps:4 KeyPress:False Matched:False	1	4	false	false	Correct	true	n/a	n-backMarkers
292.776918	0.012000	dropped_samples	3130.461983	Dropped 3 samples	n/a	n/a	n/a	n/a	n/a	n/a	3	UoHDataOffsetStream
293.475615	0.012000	dropped_samples	3131.160680	Dropped 3 samples	n/a	n/a	n/a	n/a	n/a	n/a	3	UoHDataOffsetStream
293.689929	0.008000	dropped_samples	3131.374994	Dropped 2 samples	n/a	n/a	n/a	n/a	n/a	n/a	2	UoHDataOffsetStream
294.293031	0.000000	4-back	3131.978096	Steps:4 KeyPress:False Matched:True	0	4	false	true	Wrong	true	n/a	n-backMarkers
294.687996	0.012000	dropped_samples	3132.373062	Dropped 3 samples	n/a	n/a	n/a	n/a	n/a	n/a	3	UoHDataOffsetStream
294.842292	0.052000	dropped_samples	3132.527358	Dropped 13 samples	n/a	n/a	n/a	n/a	n/a	n/a	13	UoHDataOffsetStream
295.994362	0.000000	4-back	3133.679427	Steps:4 KeyPress:False Matched:False	1	4	false	false	Correct	true	n/a	n-backMarkers
297.696091	0.000000	4-back	3135.381156	Steps:4 KeyPress:False Matched:True	0	4	false	true	Wrong	true	n/a	n-backMarkers
299.188694	0.012000	dropped_samples	3136.873759	Dropped 3 samples	n/a	n/a	n/a	n/a	n/a	n/a	3	UoHDataOffsetStream
299.236756	0.124000	dropped_samples	3136.921821	Dropped 31 samples	n/a	n/a	n/a	n/a	n/a	n/a	31	UoHDataOffsetStream
299.397854	0.000000	4-back	3137.082919	Steps:4 KeyPress:False Matched:False	1	4	false	false	Correct	true	n/a	n-backMarkers
299.403528	0.012000	dropped_samples	3137.088593	Dropped 3 samples	n/a	n/a	n/a	n/a	n/a	n/a	3	UoHDataOffsetStream
299.540210	0.004000	dropped_samples	3137.225276	Dropped 1 samples	n/a	n/a	n/a	n/a	n/a	n/a	1	UoHDataOffsetStream
299.691520	0.004000	dropped_samples	3137.376586	Dropped 1 samples	n/a	n/a	n/a	n/a	n/a	n/a	1	UoHDataOffsetStream
300.266439	0.012000	dropped_samples	3137.951504	Dropped 3 samples	n/a	n/a	n/a	n/a	n/a	n/a	3	UoHDataOffsetStream
300.510272	0.012000	dropped_samples	3138.195337	Dropped 3 samples	n/a	n/a	n/a	n/a	n/a	n/a	3	UoHDataOffsetStream
300.579762	0.008000	dropped_samples	3138.264827	Dropped 2 samples	n/a	n/a	n/a	n/a	n/a	n/a	2	UoHDataOffsetStream
300.892056	0.004000	dropped_samples	3138.577121	Dropped 1 samples	n/a	n/a	n/a	n/a	n/a	n/a	1	UoHDataOffsetStream
301.097941	0.000000	4-back	3138.783006	Steps:4 KeyPress:False Matched:False	1	4	false	false	Correct	true	n/a	n-backMarkers
301.346221	0.008000	dropped_samples	3139.031286	Dropped 2 samples	n/a	n/a	n/a	n/a	n/a	n/a	2	UoHDataOffsetStream
302.798962	0.000000	4-back	3140.484027	Steps:4 KeyPress:False Matched:False	1	4	false	false	Correct	true	n/a	n-backMarkers
304.500598	0.000000	4-back	3142.185663	Steps:4 KeyPress:True Matched:True	1	4	true	true	Correct	true	n/a	n-backMarkers
305.306372	0.012000	dropped_samples	3142.991437	Dropped 3 samples	n/a	n/a	n/a	n/a	n/a	n/a	3	UoHDataOffsetStream
306.202822	0.000000	4-back	3143.887887	Steps:4 KeyPress:False Matched:True	0	4	false	true	Wrong	true	n/a	n-backMarkers
307.904116	0.000000	4-back	3145.589181	Steps:4 KeyPress:False Matched:False	1	4	false	false	Correct	true	n/a	n-backMarkers
309.605685	0.000000	4-back	3147.290750	Steps:4 KeyPress:False Matched:False	1	4	false	false	Correct	true	n/a	n-backMarkers
310.057120	0.004000	dropped_samples	3147.742185	Dropped 1 samples	n/a	n/a	n/a	n/a	n/a	n/a	1	UoHDataOffsetStream
310.717314	0.008000	dropped_samples	3148.402379	Dropped 2 samples	n/a	n/a	n/a	n/a	n/a	n/a	2	UoHDataOffsetStream
311.306915	0.000000	4-back	3148.991980	Steps:4 KeyPress:True Matched:False	0	4	true	false	Wrong	true	n/a	n-backMarkers
311.430043	0.008000	dropped_samples	3149.115108	Dropped 2 samples	n/a	n/a	n/a	n/a	n/a	n/a	2	UoHDataOffsetStream
312.386481	0.008000	dropped_samples	3150.071546	Dropped 2 samples	n/a	n/a	n/a	n/a	n/a	n/a	2	UoHDataOffsetStream
313.007856	0.000000	4-back	3150.692921	Steps:4 KeyPress:False Matched:True	0	4	false	true	Wrong	true	n/a	n-backMarkers
313.851087	0.012000	dropped_samples	3151.536152	Dropped 3 samples	n/a	n/a	n/a	n/a	n/a	n/a	3	UoHDataOffsetStream
314.708886	0.000000	4-back	3152.393951	Steps:4 KeyPress:True Matched:False	0	4	true	false	Wrong	true	n/a	n-backMarkers
315.413703	0.004000	dropped_samples	3153.098768	Dropped 1 samples	n/a	n/a	n/a	n/a	n/a	n/a	1	UoHDataOffsetStream
316.409678	0.000000	4-back	3154.094743	Steps:4 KeyPress:True Matched:True	1	4	true	true	Correct	true	n/a	n-backMarkers
318.110507	0.000000	4-back	3155.795572	Steps:4 KeyPress:False Matched:False	1	4	false	false	Correct	true	n/a	n-backMarkers
318.387245	0.004000	dropped_samples	3156.072310	Dropped 1 samples	n/a	n/a	n/a	n/a	n/a	n/a	1	UoHDataOffsetStream
319.810754	0.000000	4-back	3157.495819	Steps:4 KeyPress:False Matched:False	1	4	false	false	Correct	true	n/a	n-backMarkers
321.511544	0.000000	4-back	3159.196609	Steps:4 KeyPress:True Matched:False	0	4	true	false	Wrong	true	n/a	n-backMarkers
321.653937	0.004000	dropped_samples	3159.339002	Dropped 1 samples	n/a	n/a	n/a	n/a	n/a	n/a	1	UoHDataOffsetStream
323.212400	0.000000	4-back	3160.897465	Steps:4 KeyPress:True Matched:True	1	4	true	true	Correct	true	n/a	n-backMarkers
323.885526	0.004000	dropped_samples	3161.570591	Dropped 1 samples	n/a	n/a	n/a	n/a	n/a	n/a	1	UoHDataOffsetStream
324.529904	0.008000	dropped_samples	3162.214969	Dropped 2 samples	n/a	n/a	n/a	n/a	n/a	n/a	2	UoHDataOffsetStream
324.913972	0.000000	4-back	3162.599037	Steps:4 KeyPress:False Matched:False	1	4	false	false	Correct	true	n/a	n-backMarkers
325.618204	0.000000	finished_tutorial_n_back	3163.303269	Finished tutorial n-back	n/a	n/a	n/a	n/a	n/a	true	n/a	n-backMarkers
328.447688	0.012000	dropped_samples	3166.132753	Dropped 3 samples	n/a	n/a	n/a	n/a	n/a	n/a	3	UoHDataOffsetStream
328.924341	0.004000	dropped_samples	3166.609406	Dropped 1 samples	n/a	n/a	n/a	n/a	n/a	n/a	1	UoHDataOffsetStream
329.476060	0.012000	dropped_samples	3167.161125	Dropped 3 samples	n/a	n/a	n/a	n/a	n/a	n/a	3	UoHDataOffsetStream
330.193938	0.004000	dropped_samples	3167.879003	Dropped 1 samples	n/a	n/a	n/a	n/a	n/a	n/a	1	UoHDataOffsetStream
335.525901	0.004000	dropped_samples	3173.210966	Dropped 1 samples	n/a	n/a	n/a	n/a	n/a	n/a	1	UoHDataOffsetStream
340.706604	0.004000	dropped_samples	3178.391669	Dropped 1 samples	n/a	n/a	n/a	n/a	n/a	n/a	1	UoHDataOffsetStream
341.092313	0.004000	dropped_samples	3178.777378	Dropped 1 samples	n/a	n/a	n/a	n/a	n/a	n/a	1	UoHDataOffsetStream
346.780791	0.012000	dropped_samples	3184.465856	Dropped 3 samples	n/a	n/a	n/a	n/a	n/a	n/a	3	UoHDataOffsetStream
347.044481	0.012000	dropped_samples	3184.729546	Dropped 3 samples	n/a	n/a	n/a	n/a	n/a	n/a	3	UoHDataOffsetStream
347.382875	0.004000	dropped_samples	3185.067940	Dropped 1 samples	n/a	n/a	n/a	n/a	n/a	n/a	1	UoHDataOffsetStream
347.458429	0.008000	dropped_samples	3185.143494	Dropped 2 samples	n/a	n/a	n/a	n/a	n/a	n/a	2	UoHDataOffsetStream
347.620778	0.012000	dropped_samples	3185.305843	Dropped 3 samples	n/a	n/a	n/a	n/a	n/a	n/a	3	UoHDataOffsetStream
348.533727	0.004000	dropped_samples	3186.218792	Dropped 1 samples	n/a	n/a	n/a	n/a	n/a	n/a	1	UoHDataOffsetStream
348.724175	0.012000	dropped_samples	3186.409240	Dropped 3 samples	n/a	n/a	n/a	n/a	n/a	n/a	3	UoHDataOffsetStream
350.394365	0.000000	started_n_back	3188.079430	Started n-back	n/a	n/a	n/a	n/a	n/a	false	n/a	n-backMarkers
352.107942	0.012000	dropped_samples	3189.793007	Dropped 3 samples	n/a	n/a	n/a	n/a	n/a	n/a	3	UoHDataOffsetStream
353.582278	0.008000	dropped_samples	3191.267343	Dropped 2 samples	n/a	n/a	n/a	n/a	n/a	n/a	2	UoHDataOffsetStream
353.681913	0.008000	dropped_samples	3191.366978	Dropped 2 samples	n/a	n/a	n/a	n/a	n/a	n/a	2	UoHDataOffsetStream
353.714451	0.008000	dropped_samples	3191.399516	Dropped 2 samples	n/a	n/a	n/a	n/a	n/a	n/a	2	UoHDataOffsetStream
356.981112	0.004000	dropped_samples	3194.666177	Dropped 1 samples	n/a	n/a	n/a	n/a	n/a	n/a	1	UoHDataOffsetStream
357.293498	0.004000	dropped_samples	3194.978563	Dropped 1 samples	n/a	n/a	n/a	n/a	n/a	n/a	1	UoHDataOffsetStream
357.804518	0.012000	dropped_samples	3195.489583	Dropped 3 samples	n/a	n/a	n/a	n/a	n/a	n/a	3	UoHDataOffsetStream
358.011700	0.012000	dropped_samples	3195.696765	Dropped 3 samples	n/a	n/a	n/a	n/a	n/a	n/a	3	UoHDataOffsetStream
358.397626	0.000000	1-back	3196.082691	Steps:1 KeyPress:False Matched:False	1	1	false	false	Correct	false	n/a	n-backMarkers
358.674666	0.012000	dropped_samples	3196.359731	Dropped 3 samples	n/a	n/a	n/a	n/a	n/a	n/a	3	UoHDataOffsetStream
358.734290	0.008000	dropped_samples	3196.419355	Dropped 2 samples	n/a	n/a	n/a	n/a	n/a	n/a	2	UoHDataOffsetStream
358.777872	0.040000	dropped_samples	3196.462937	Dropped 10 samples	n/a	n/a	n/a	n/a	n/a	n/a	10	UoHDataOffsetStream
359.715375	0.012000	dropped_samples	3197.400440	Dropped 3 samples	n/a	n/a	n/a	n/a	n/a	n/a	3	UoHDataOffsetStream
359.719856	0.008000	dropped_samples	3197.404921	Dropped 2 samples	n/a	n/a	n/a	n/a	n/a	n/a	2	UoHDataOffsetStream
359.804925	0.012000	dropped_samples	3197.489990	Dropped 3 samples	n/a	n/a	n/a	n/a	n/a	n/a	3	UoHDataOffsetStream
359.813534	0.012000	dropped_samples	3197.498599	Dropped 3 samples	n/a	n/a	n/a	n/a	n/a	n/a	3	UoHDataOffsetStream
359.862101	0.032000	dropped_samples	3197.547166	Dropped 8 samples	n/a	n/a	n/a	n/a	n/a	n/a	8	UoHDataOffsetStream
360.098623	0.000000	1-back	3197.783688	Steps:1 KeyPress:False Matched:False	1	1	false	false	Correct	false	n/a	n-backMarkers
360.461210	0.012000	dropped_samples	3198.146275	Dropped 3 samples	n/a	n/a	n/a	n/a	n/a	n/a	3	UoHDataOffsetStream
360.745686	0.008000	dropped_samples	3198.430751	Dropped 2 samples	n/a	n/a	n/a	n/a	n/a	n/a	2	UoHDataOffsetStream
361.277931	0.012000	dropped_samples	3198.962996	Dropped 3 samples	n/a	n/a	n/a	n/a	n/a	n/a	3	UoHDataOffsetStream
361.800308	0.000000	1-back	3199.485373	Steps:1 KeyPress:False Matched:False	1	1	false	false	Correct	false	n/a	n-backMarkers
362.381591	0.008000	dropped_samples	3200.066656	Dropped 2 samples	n/a	n/a	n/a	n/a	n/a	n/a	2	UoHDataOffsetStream
362.884431	0.004000	dropped_samples	3200.569496	Dropped 1 samples	n/a	n/a	n/a	n/a	n/a	n/a	1	UoHDataOffsetStream
363.500346	0.000000	1-back	3201.185411	Steps:1 KeyPress:True Matched:False	0	1	true	false	Wrong	false	n/a	n-backMarkers
363.509417	0.008000	dropped_samples	3201.194482	Dropped 2 samples	n/a	n/a	n/a	n/a	n/a	n/a	2	UoHDataOffsetStream
364.470095	0.004000	dropped_samples	3202.155160	Dropped 1 samples	n/a	n/a	n/a	n/a	n/a	n/a	1	UoHDataOffsetStream
364.794589	0.008000	dropped_samples	3202.479654	Dropped 2 samples	n/a	n/a	n/a	n/a	n/a	n/a	2	UoHDataOffsetStream
364.827786	0.012000	dropped_samples	3202.512851	Dropped 3 samples	n/a	n/a	n/a	n/a	n/a	n/a	3	UoHDataOffsetStream
365.201688	0.000000	1-back	3202.886753	Steps:1 KeyPress:False Matched:True	0	1	false	true	Wrong	false	n/a	n-backMarkers
365.536898	0.008000	dropped_samples	3203.221963	Dropped 2 samples	n/a	n/a	n/a	n/a	n/a	n/a	2	UoHDataOffsetStream
365.707420	0.012000	dropped_samples	3203.392485	Dropped 3 samples	n/a	n/a	n/a	n/a	n/a	n/a	3	UoHDataOffsetStream
365.740888	0.036000	dropped_samples	3203.425953	Dropped 9 samples	n/a	n/a	n/a	n/a	n/a	n/a	9	UoHDataOffsetStream
366.630777	0.012000	dropped_samples	3204.315842	Dropped 3 samples	n/a	n/a	n/a	n/a	n/a	n/a	3	UoHDataOffsetStream
366.632781	0.024000	dropped_samples	3204.317847	Dropped 6 samples	n/a	n/a	n/a	n/a	n/a	n/a	6	UoHDataOffsetStream
366.678348	0.020000	dropped_samples	3204.363413	Dropped 5 samples	n/a	n/a	n/a	n/a	n/a	n/a	5	UoHDataOffsetStream
366.902998	0.000000	1-back	3204.588063	Steps:1 KeyPress:False Matched:False	1	1	false	false	Correct	false	n/a	n-backMarkers
367.420710	0.004000	dropped_samples	3205.105775	Dropped 1 samples	n/a	n/a	n/a	n/a	n/a	n/a	1	UoHDataOffsetStream
368.057967	0.008000	dropped_samples	3205.743033	Dropped 2 samples	n/a	n/a	n/a	n/a	n/a	n/a	2	UoHDataOffsetStream
368.098724	0.008000	dropped_samples	3205.783789	Dropped 2 samples	n/a	n/a	n/a	n/a	n/a	n/a	2	UoHDataOffsetStream
368.499704	0.004000	dropped_samples	3206.184769	Dropped 1 samples	n/a	n/a	n/a	n/a	n/a	n/a	1	UoHDataOffsetStream
368.604071	0.000000	1-back	3206.289136	Steps:1 KeyPress:True Matched:False	0	1	true	false	Wrong	false	n/a	n-backMarkers
368.909736	0.004000	dropped_samples	3206.594801	Dropped 1 samples	n/a	n/a	n/a	n/a	n/a	n/a	1	UoHDataOffsetStream
370.303868	0.000000	1-back	3207.988933	Steps:1 KeyPress:False Matched:True	0	1	false	true	Wrong	false	n/a	n-backMarkers
370.698563	0.036000	dropped_samples	3208.383628	Dropped 9 samples	n/a	n/a	n/a	n/a	n/a	n/a	9	UoHDataOffsetStream
371.368945	0.008000	dropped_samples	3209.054010	Dropped 2 samples	n/a	n/a	n/a	n/a	n/a	n/a	2	UoHDataOffsetStream
371.429462	0.004000	dropped_samples	3209.114527	Dropped 1 samples	n/a	n/a	n/a	n/a	n/a	n/a	1	UoHDataOffsetStream
371.674884	0.008000	dropped_samples	3209.359949	Dropped 2 samples	n/a	n/a	n/a	n/a	n/a	n/a	2	UoHDataOffsetStream
371.717345	0.012000	dropped_samples	3209.402410	Dropped 3 samples	n/a	n/a	n/a	n/a	n/a	n/a	3	UoHDataOffsetStream
372.004809	0.000000	1-back	3209.689874	Steps:1 KeyPress:False Matched:True	0	1	false	true	Wrong	false	n/a	n-backMarkers
372.005504	0.008000	dropped_samples	3209.690570	Dropped 2 samples	n/a	n/a	n/a	n/a	n/a	n/a	2	UoHDataOffsetStream
372.459647	0.008000	dropped_samples	3210.144712	Dropped 2 samples	n/a	n/a	n/a	n/a	n/a	n/a	2	UoHDataOffsetStream
372.723243	0.012000	dropped_samples	3210.408308	Dropped 3 samples	n/a	n/a	n/a	n/a	n/a	n/a	3	UoHDataOffsetStream
373.182226	0.012000	dropped_samples	3210.867291	Dropped 3 samples	n/a	n/a	n/a	n/a	n/a	n/a	3	UoHDataOffsetStream
373.489800	0.008000	dropped_samples	3211.174865	Dropped 2 samples	n/a	n/a	n/a	n/a	n/a	n/a	2	UoHDataOffsetStream
373.705568	0.000000	1-back	3211.390633	Steps:1 KeyPress:False Matched:False	1	1	false	false	Correct	false	n/a	n-backMarkers
375.174523	0.004000	dropped_samples	3212.859588	Dropped 1 samples	n/a	n/a	n/a	n/a	n/a	n/a	1	UoHDataOffsetStream
375.405703	0.000000	1-back	3213.090768	Steps:1 KeyPress:True Matched:False	0	1	true	false	Wrong	false	n/a	n-backMarkers
376.732029	0.008000	dropped_samples	3214.417094	Dropped 2 samples	n/a	n/a	n/a	n/a	n/a	n/a	2	UoHDataOffsetStream
377.105975	0.000000	1-back	3214.791040	Steps:1 KeyPress:False Matched:False	1	1	false	false	Correct	false	n/a	n-backMarkers
377.730203	0.024000	dropped_samples	3215.415268	Dropped 6 samples	n/a	n/a	n/a	n/a	n/a	n/a	6	UoHDataOffsetStream
377.762327	0.004000	dropped_samples	3215.447392	Dropped 1 samples	n/a	n/a	n/a	n/a	n/a	n/a	1	UoHDataOffsetStream
378.637293	0.016000	dropped_samples	3216.322358	Dropped 4 samples	n/a	n/a	n/a	n/a	n/a	n/a	4	UoHDataOffsetStream
378.691685	0.008000	dropped_samples	3216.376750	Dropped 2 samples	n/a	n/a	n/a	n/a	n/a	n/a	2	UoHDataOffsetStream
378.724229	0.004000	dropped_samples	3216.409294	Dropped 1 samples	n/a	n/a	n/a	n/a	n/a	n/a	1	UoHDataOffsetStream
378.806652	0.000000	1-back	3216.491717	Steps:1 KeyPress:True Matched:False	0	1	true	false	Wrong	false	n/a	n-backMarkers
380.506702	0.000000	1-back	3218.191767	Steps:1 KeyPress:False Matched:True	0	1	false	true	Wrong	false	n/a	n-backMarkers
380.789661	0.004000	dropped_samples	3218.474726	Dropped 1 samples	n/a	n/a	n/a	n/a	n/a	n/a	1	UoHDataOffsetStream
382.208316	0.000000	1-back	3219.893381	Steps:1 KeyPress:False Matched:False	1	1	false	false	Correct	false	n/a	n-backMarkers
383.456167	0.012000	dropped_samples	3221.141232	Dropped 3 samples	n/a	n/a	n/a	n/a	n/a	n/a	3	UoHDataOffsetStream
383.543841	0.008000	dropped_samples	3221.228906	Dropped 2 samples	n/a	n/a	n/a	n/a	n/a	n/a	2	UoHDataOffsetStream
383.573433	0.004000	dropped_samples	3221.258498	Dropped 1 samples	n/a	n/a	n/a	n/a	n/a	n/a	1	UoHDataOffsetStream
383.909533	0.000000	1-back	3221.594598	Steps:1 KeyPress:True Matched:False	0	1	true	false	Wrong	false	n/a	n-backMarkers
384.466364	0.012000	dropped_samples	3222.151429	Dropped 3 samples	n/a	n/a	n/a	n/a	n/a	n/a	3	UoHDataOffsetStream
385.610092	0.000000	1-back	3223.295157	Steps:1 KeyPress:False Matched:True	0	1	false	true	Wrong	false	n/a	n-backMarkers
386.932247	0.004000	dropped_samples	3224.617312	Dropped 1 samples	n/a	n/a	n/a	n/a	n/a	n/a	1	UoHDataOffsetStream
387.310720	0.000000	1-back	3224.995785	Steps:1 KeyPress:False Matched:True	0	1	false	true	Wrong	false	n/a	n-backMarkers
388.109072	0.012000	dropped_samples	3225.794137	Dropped 3 samples	n/a	n/a	n/a	n/a	n/a	n/a	3	UoHDataOffsetStream
388.951532	0.004000	dropped_samples	3226.636597	Dropped 1 samples	n/a	n/a	n/a	n/a	n/a	n/a	1	UoHDataOffsetStream
389.004873	0.012000	dropped_samples	3226.689938	Dropped 3 samples	n/a	n/a	n/a	n/a	n/a	n/a	3	UoHDataOffsetStream
389.008972	0.064000	dropped_samples	3226.694037	Dropped 16 samples	n/a	n/a	n/a	n/a	n/a	n/a	16	UoHDataOffsetStream
389.011630	0.000000	1-back	3226.696695	Steps:1 KeyPress:False Matched:False	1	1	false	false	Correct	false	n/a	n-backMarkers
389.495925	0.012000	dropped_samples	3227.180990	Dropped 3 samples	n/a	n/a	n/a	n/a	n/a	n/a	3	UoHDataOffsetStream
389.500890	0.012000	dropped_samples	3227.185955	Dropped 3 samples	n/a	n/a	n/a	n/a	n/a	n/a	3	UoHDataOffsetStream
389.651684	0.012000	dropped_samples	3227.336749	Dropped 3 samples	n/a	n/a	n/a	n/a	n/a	n/a	3	UoHDataOffsetStream
389.691076	0.008000	dropped_samples	3227.376141	Dropped 2 samples	n/a	n/a	n/a	n/a	n/a	n/a	2	UoHDataOffsetStream
390.150008	0.004000	dropped_samples	3227.835073	Dropped 1 samples	n/a	n/a	n/a	n/a	n/a	n/a	1	UoHDataOffsetStream
390.423541	0.012000	dropped_samples	3228.108606	Dropped 3 samples	n/a	n/a	n/a	n/a	n/a	n/a	3	UoHDataOffsetStream
390.713382	0.000000	1-back	3228.398447	Steps:1 KeyPress:False Matched:False	1	1	false	false	Correct	false	n/a	n-backMarkers
390.749565	0.004000	dropped_samples	3228.434630	Dropped 1 samples	n/a	n/a	n/a	n/a	n/a	n/a	1	UoHDataOffsetStream
390.959059	0.012000	dropped_samples	3228.644124	Dropped 3 samples	n/a	n/a	n/a	n/a	n/a	n/a	3	UoHDataOffsetStream
390.965812	0.012000	dropped_samples	3228.650877	Dropped 3 samples	n/a	n/a	n/a	n/a	n/a	n/a	3	UoHDataOffsetStream
391.014255	0.048000	dropped_samples	3228.699320	Dropped 12 samples	n/a	n/a	n/a	n/a	n/a	n/a	12	UoHDataOffsetStream
391.829735	0.012000	dropped_samples	3229.514800	Dropped 3 samples	n/a	n/a	n/a	n/a	n/a	n/a	3	UoHDataOffsetStream
392.414381	0.000000	1-back	3230.099446	Steps:1 KeyPress:True Matched:False	0	1	true	false	Wrong	false	n/a	n-backMarkers
394.115744	0.000000	1-back	3231.800809	Steps:1 KeyPress:False Matched:True	0	1	false	true	Wrong	false	n/a	n-backMarkers
394.580552	0.008000	dropped_samples	3232.265617	Dropped 2 samples	n/a	n/a	n/a	n/a	n/a	n/a	2	UoHDataOffsetStream
394.591085	0.008000	dropped_samples	3232.276150	Dropped 2 samples	n/a	n/a	n/a	n/a	n/a	n/a	2	UoHDataOffsetStream
394.659058	0.008000	dropped_samples	3232.344123	Dropped 2 samples	n/a	n/a	n/a	n/a	n/a	n/a	2	UoHDataOffsetStream
394.789067	0.012000	dropped_samples	3232.474132	Dropped 3 samples	n/a	n/a	n/a	n/a	n/a	n/a	3	UoHDataOffsetStream
395.499003	0.008000	dropped_samples	3233.184068	Dropped 2 samples	n/a	n/a	n/a	n/a	n/a	n/a	2	UoHDataOffsetStream
395.817157	0.000000	1-back	3233.502222	Steps:1 KeyPress:False Matched:False	1	1	false	false	Correct	false	n/a	n-backMarkers
396.645720	0.004000	dropped_samples	3234.330785	Dropped 1 samples	n/a	n/a	n/a	n/a	n/a	n/a	1	UoHDataOffsetStream
396.740482	0.004000	dropped_samples	3234.425547	Dropped 1 samples	n/a	n/a	n/a	n/a	n/a	n/a	1	UoHDataOffsetStream
396.747011	0.008000	dropped_samples	3234.432076	Dropped 2 samples	n/a	n/a	n/a	n/a	n/a	n/a	2	UoHDataOffsetStream
396.795539	0.044000	dropped_samples	3234.480604	Dropped 11 samples	n/a	n/a	n/a	n/a	n/a	n/a	11	UoHDataOffsetStream
397.517638	0.000000	1-back	3235.202703	Steps:1 KeyPress:True Matched:False	0	1	true	false	Wrong	false	n/a	n-backMarkers
397.790316	0.012000	dropped_samples	3235.475381	Dropped 3 samples	n/a	n/a	n/a	n/a	n/a	n/a	3	UoHDataOffsetStream
397.847587	0.012000	dropped_samples	3235.532652	Dropped 3 samples	n/a	n/a	n/a	n/a	n/a	n/a	3	UoHDataOffsetStream
399.217619	0.000000	1-back	3236.902684	Steps:1 KeyPress:False Matched:True	0	1	false	true	Wrong	false	n/a	n-backMarkers
400.737883	0.008000	dropped_samples	3238.422948	Dropped 2 samples	n/a	n/a	n/a	n/a	n/a	n/a	2	UoHDataOffsetStream
400.741569	0.040000	dropped_samples	3238.426634	Dropped 10 samples	n/a	n/a	n/a	n/a	n/a	n/a	10	UoHDataOffsetStream
400.779941	0.012000	dropped_samples	3238.465006	Dropped 3 samples	n/a	n/a	n/a	n/a	n/a	n/a	3	UoHDataOffsetStream
400.918773	0.000000	1-back	3238.603838	Steps:1 KeyPress:False Matched:True	0	1	false	true	Wrong	false	n/a	n-backMarkers
401.814550	0.008000	dropped_samples	3239.499615	Dropped 2 samples	n/a	n/a	n/a	n/a	n/a	n/a	2	UoHDataOffsetStream
401.896665	0.012000	dropped_samples	3239.581730	Dropped 3 samples	n/a	n/a	n/a	n/a	n/a	n/a	3	UoHDataOffsetStream
401.898073	0.012000	dropped_samples	3239.583138	Dropped 3 samples	n/a	n/a	n/a	n/a	n/a	n/a	3	UoHDataOffsetStream
401.932281	0.068000	dropped_samples	3239.617346	Dropped 17 samples	n/a	n/a	n/a	n/a	n/a	n/a	17	UoHDataOffsetStream
402.619798	0.000000	1-back	3240.304863	Steps:1 KeyPress:False Matched:False	1	1	false	false	Correct	false	n/a	n-backMarkers
402.906387	0.004000	dropped_samples	3240.591452	Dropped 1 samples	n/a	n/a	n/a	n/a	n/a	n/a	1	UoHDataOffsetStream
403.018875	0.012000	dropped_samples	3240.703940	Dropped 3 samples	n/a	n/a	n/a	n/a	n/a	n/a	3	UoHDataOffsetStream
403.020220	0.012000	dropped_samples	3240.705285	Dropped 3 samples	n/a	n/a	n/a	n/a	n/a	n/a	3	UoHDataOffsetStream
403.060228	0.088000	dropped_samples	3240.745293	Dropped 22 samples	n/a	n/a	n/a	n/a	n/a	n/a	22	UoHDataOffsetStream
403.446071	0.008000	dropped_samples	3241.131136	Dropped 2 samples	n/a	n/a	n/a	n/a	n/a	n/a	2	UoHDataOffsetStream
404.321628	0.000000	1-back	3242.006693	Steps:1 KeyPress:False Matched:False	1	1	false	false	Correct	false	n/a	n-backMarkers
404.666714	0.008000	dropped_samples	3242.351779	Dropped 2 samples	n/a	n/a	n/a	n/a	n/a	n/a	2	UoHDataOffsetStream
405.389293	0.008000	dropped_samples	3243.074358	Dropped 2 samples	n/a	n/a	n/a	n/a	n/a	n/a	2	UoHDataOffsetStream
406.023554	0.000000	1-back	3243.708619	Steps:1 KeyPress:True Matched:False	0	1	true	false	Wrong	false	n/a	n-backMarkers
406.461611	0.012000	dropped_samples	3244.146676	Dropped 3 samples	n/a	n/a	n/a	n/a	n/a	n/a	3	UoHDataOffsetStream
406.760737	0.004000	dropped_samples	3244.445803	Dropped 1 samples	n/a	n/a	n/a	n/a	n/a	n/a	1	UoHDataOffsetStream
406.763031	0.012000	dropped_samples	3244.448097	Dropped 3 samples	n/a	n/a	n/a	n/a	n/a	n/a	3	UoHDataOffsetStream
406.807040	0.028000	dropped_samples	3244.492105	Dropped 7 samples	n/a	n/a	n/a	n/a	n/a	n/a	7	UoHDataOffsetStream
407.498839	0.012000	dropped_samples	3245.183904	Dropped 3 samples	n/a	n/a	n/a	n/a	n/a	n/a	3	UoHDataOffsetStream
407.718442	0.012000	dropped_samples	3245.403507	Dropped 3 samples	n/a	n/a	n/a	n/a	n/a	n/a	3	UoHDataOffsetStream
407.724472	0.000000	1-back	3245.409537	Steps:1 KeyPress:False Matched:False	1	1	false	false	Correct	false	n/a	n-backMarkers
408.727907	0.008000	dropped_samples	3246.412972	Dropped 2 samples	n/a	n/a	n/a	n/a	n/a	n/a	2	UoHDataOffsetStream
408.796813	0.012000	dropped_samples	3246.481878	Dropped 3 samples	n/a	n/a	n/a	n/a	n/a	n/a	3	UoHDataOffsetStream
408.800691	0.012000	dropped_samples	3246.485756	Dropped 3 samples	n/a	n/a	n/a	n/a	n/a	n/a	3	UoHDataOffsetStream
408.846367	0.028000	dropped_samples	3246.531432	Dropped 7 samples	n/a	n/a	n/a	n/a	n/a	n/a	7	UoHDataOffsetStream
409.426329	0.000000	1-back	3247.111394	Steps:1 KeyPress:True Matched:False	0	1	true	false	Wrong	false	n/a	n-backMarkers
411.126418	0.000000	1-back	3248.811483	Steps:1 KeyPress:False Matched:False	1	1	false	false	Correct	false	n/a	n-backMarkers
411.771928	0.004000	dropped_samples	3249.456993	Dropped 1 samples	n/a	n/a	n/a	n/a	n/a	n/a	1	UoHDataOffsetStream
412.827829	0.000000	1-back	3250.512894	Steps:1 KeyPress:True Matched:False	0	1	true	false	Wrong	false	n/a	n-backMarkers
412.932448	0.004000	dropped_samples	3250.617513	Dropped 1 samples	n/a	n/a	n/a	n/a	n/a	n/a	1	UoHDataOffsetStream
412.944998	0.012000	dropped_samples	3250.630063	Dropped 3 samples	n/a	n/a	n/a	n/a	n/a	n/a	3	UoHDataOffsetStream
412.952868	0.012000	dropped_samples	3250.637933	Dropped 3 samples	n/a	n/a	n/a	n/a	n/a	n/a	3	UoHDataOffsetStream
412.996830	0.060000	dropped_samples	3250.681895	Dropped 15 samples	n/a	n/a	n/a	n/a	n/a	n/a	15	UoHDataOffsetStream
413.654165	0.016000	dropped_samples	3251.339230	Dropped 4 samples	n/a	n/a	n/a	n/a	n/a	n/a	4	UoHDataOffsetStream
413.698226	0.012000	dropped_samples	3251.383291	Dropped 3 samples	n/a	n/a	n/a	n/a	n/a	n/a	3	UoHDataOffsetStream
413.738927	0.024000	dropped_samples	3251.423992	Dropped 6 samples	n/a	n/a	n/a	n/a	n/a	n/a	6	UoHDataOffsetStream
414.529323	0.000000	1-back	3252.214388	Steps:1 KeyPress:False Matched:False	1	1	false	false	Correct	false	n/a	n-backMarkers
414.694397	0.012000	dropped_samples	3252.379462	Dropped 3 samples	n/a	n/a	n/a	n/a	n/a	n/a	3	UoHDataOffsetStream
414.704774	0.012000	dropped_samples	3252.389839	Dropped 3 samples	n/a	n/a	n/a	n/a	n/a	n/a	3	UoHDataOffsetStream
414.794382	0.036000	dropped_samples	3252.479447	Dropped 9 samples	n/a	n/a	n/a	n/a	n/a	n/a	9	UoHDataOffsetStream
416.229567	0.000000	1-back	3253.914632	Steps:1 KeyPress:True Matched:False	0	1	true	false	Wrong	false	n/a	n-backMarkers
416.405978	0.012000	dropped_samples	3254.091043	Dropped 3 samples	n/a	n/a	n/a	n/a	n/a	n/a	3	UoHDataOffsetStream
416.459324	0.012000	dropped_samples	3254.144389	Dropped 3 samples	n/a	n/a	n/a	n/a	n/a	n/a	3	UoHDataOffsetStream
416.502614	0.024000	dropped_samples	3254.187679	Dropped 6 samples	n/a	n/a	n/a	n/a	n/a	n/a	6	UoHDataOffsetStream
416.883673	0.004000	dropped_samples	3254.568738	Dropped 1 samples	n/a	n/a	n/a	n/a	n/a	n/a	1	UoHDataOffsetStream
417.293646	0.012000	dropped_samples	3254.978711	Dropped 3 samples	n/a	n/a	n/a	n/a	n/a	n/a	3	UoHDataOffsetStream
417.698905	0.012000	dropped_samples	3255.383970	Dropped 3 samples	n/a	n/a	n/a	n/a	n/a	n/a	3	UoHDataOffsetStream
417.929680	0.000000	1-back	3255.614746	Steps:1 KeyPress:False Matched:False	1	1	false	false	Correct	false	n/a	n-backMarkers
418.745704	0.008000	dropped_samples	3256.430769	Dropped 2 samples	n/a	n/a	n/a	n/a	n/a	n/a	2	UoHDataOffsetStream
418.851671	0.012000	dropped_samples	3256.536736	Dropped 3 samples	n/a	n/a	n/a	n/a	n/a	n/a	3	UoHDataOffsetStream
418.900169	0.028000	dropped_samples	3256.585234	Dropped 7 samples	n/a	n/a	n/a	n/a	n/a	n/a	7	UoHDataOffsetStream
419.454127	0.012000	dropped_samples	3257.139192	Dropped 3 samples	n/a	n/a	n/a	n/a	n/a	n/a	3	UoHDataOffsetStream
419.499309	0.012000	dropped_samples	3257.184374	Dropped 3 samples	n/a	n/a	n/a	n/a	n/a	n/a	3	UoHDataOffsetStream
419.631538	0.000000	1-back	3257.316603	Steps:1 KeyPress:True Matched:False	0	1	true	false	Wrong	false	n/a	n-backMarkers
419.837538	0.012000	dropped_samples	3257.522603	Dropped 3 samples	n/a	n/a	n/a	n/a	n/a	n/a	3	UoHDataOffsetStream
420.780358	0.032000	dropped_samples	3258.465423	Dropped 8 samples	n/a	n/a	n/a	n/a	n/a	n/a	8	UoHDataOffsetStream
420.783039	0.032000	dropped_samples	3258.468104	Dropped 8 samples	n/a	n/a	n/a	n/a	n/a	n/a	8	UoHDataOffsetStream
420.819059	0.004000	dropped_samples	3258.504124	Dropped 1 samples	n/a	n/a	n/a	n/a	n/a	n/a	1	UoHDataOffsetStream
421.332452	0.000000	1-back	3259.017517	Steps:1 KeyPress:False Matched:False	1	1	false	false	Correct	false	n/a	n-backMarkers
423.033565	0.000000	1-back	3260.718630	Steps:1 KeyPress:True Matched:False	0	1	true	false	Wrong	false	n/a	n-backMarkers
423.099355	0.008000	dropped_samples	3260.784420	Dropped 2 samples	n/a	n/a	n/a	n/a	n/a	n/a	2	UoHDataOffsetStream
424.227202	0.008000	dropped_samples	3261.912267	Dropped 2 samples	n/a	n/a	n/a	n/a	n/a	n/a	2	UoHDataOffsetStream
424.735376	0.000000	1-back	3262.420441	Steps:1 KeyPress:False Matched:False	1	1	false	false	Correct	false	n/a	n-backMarkers
424.811189	0.004000	dropped_samples	3262.496254	Dropped 1 samples	n/a	n/a	n/a	n/a	n/a	n/a	1	UoHDataOffsetStream
424.874926	0.012000	dropped_samples	3262.559991	Dropped 3 samples	n/a	n/a	n/a	n/a	n/a	n/a	3	UoHDataOffsetStream
424.880878	0.012000	dropped_samples	3262.565943	Dropped 3 samples	n/a	n/a	n/a	n/a	n/a	n/a	3	UoHDataOffsetStream
424.925530	0.060000	dropped_samples	3262.610595	Dropped 15 samples	n/a	n/a	n/a	n/a	n/a	n/a	15	UoHDataOffsetStream
425.541252	0.024000	dropped_samples	3263.226317	Dropped 6 samples	n/a	n/a	n/a	n/a	n/a	n/a	6	UoHDataOffsetStream
425.659628	0.016000	dropped_samples	3263.344693	Dropped 4 samples	n/a	n/a	n/a	n/a	n/a	n/a	4	UoHDataOffsetStream
425.716493	0.012000	dropped_samples	3263.401558	Dropped 3 samples	n/a	n/a	n/a	n/a	n/a	n/a	3	UoHDataOffsetStream
426.436483	0.000000	1-back	3264.121548	Steps:1 KeyPress:True Matched:False	0	1	true	false	Wrong	false	n/a	n-backMarkers
426.722480	0.012000	dropped_samples	3264.407545	Dropped 3 samples	n/a	n/a	n/a	n/a	n/a	n/a	3	UoHDataOffsetStream
426.757672	0.012000	dropped_samples	3264.442737	Dropped 3 samples	n/a	n/a	n/a	n/a	n/a	n/a	3	UoHDataOffsetStream
426.758961	0.032000	dropped_samples	3264.444026	Dropped 8 samples	n/a	n/a	n/a	n/a	n/a	n/a	8	UoHDataOffsetStream
426.835018	0.016000	dropped_samples	3264.520083	Dropped 4 samples	n/a	n/a	n/a	n/a	n/a	n/a	4	UoHDataOffsetStream
426.868840	0.004000	dropped_samples	3264.553905	Dropped 1 samples	n/a	n/a	n/a	n/a	n/a	n/a	1	UoHDataOffsetStream
427.279109	0.004000	dropped_samples	3264.964174	Dropped 1 samples	n/a	n/a	n/a	n/a	n/a	n/a	1	UoHDataOffsetStream
428.138317	0.000000	1-back	3265.823382	Steps:1 KeyPress:False Matched:False	1	1	false	false	Correct	false	n/a	n-backMarkers
429.002660	0.012000	dropped_samples	3266.687725	Dropped 3 samples	n/a	n/a	n/a	n/a	n/a	n/a	3	UoHDataOffsetStream
429.840349	0.000000	1-back	3267.525414	Steps:1 KeyPress:True Matched:False	0	1	true	false	Wrong	false	n/a	n-backMarkers
430.747295	0.012000	dropped_samples	3268.432360	Dropped 3 samples	n/a	n/a	n/a	n/a	n/a	n/a	3	UoHDataOffsetStream
430.905491	0.024000	dropped_samples	3268.590556	Dropped 6 samples	n/a	n/a	n/a	n/a	n/a	n/a	6	UoHDataOffsetStream
430.906836	0.012000	dropped_samples	3268.591901	Dropped 3 samples	n/a	n/a	n/a	n/a	n/a	n/a	3	UoHDataOffsetStream
430.950970	0.036000	dropped_samples	3268.636035	Dropped 9 samples	n/a	n/a	n/a	n/a	n/a	n/a	9	UoHDataOffsetStream
431.187254	0.012000	dropped_samples	3268.872319	Dropped 3 samples	n/a	n/a	n/a	n/a	n/a	n/a	3	UoHDataOffsetStream
431.214532	0.012000	dropped_samples	3268.899597	Dropped 3 samples	n/a	n/a	n/a	n/a	n/a	n/a	3	UoHDataOffsetStream
431.541427	0.000000	1-back	3269.226492	Steps:1 KeyPress:False Matched:True	0	1	false	true	Wrong	false	n/a	n-backMarkers
431.830370	0.008000	dropped_samples	3269.515435	Dropped 2 samples	n/a	n/a	n/a	n/a	n/a	n/a	2	UoHDataOffsetStream
431.907926	0.020000	dropped_samples	3269.592991	Dropped 5 samples	n/a	n/a	n/a	n/a	n/a	n/a	5	UoHDataOffsetStream
431.913028	0.012000	dropped_samples	3269.598093	Dropped 3 samples	n/a	n/a	n/a	n/a	n/a	n/a	3	UoHDataOffsetStream
431.956748	0.028000	dropped_samples	3269.641813	Dropped 7 samples	n/a	n/a	n/a	n/a	n/a	n/a	7	UoHDataOffsetStream
432.550576	0.012000	dropped_samples	3270.235641	Dropped 3 samples	n/a	n/a	n/a	n/a	n/a	n/a	3	UoHDataOffsetStream
432.647836	0.024000	dropped_samples	3270.332901	Dropped 6 samples	n/a	n/a	n/a	n/a	n/a	n/a	6	UoHDataOffsetStream
432.655210	0.028000	dropped_samples	3270.340275	Dropped 7 samples	n/a	n/a	n/a	n/a	n/a	n/a	7	UoHDataOffsetStream
432.894298	0.008000	dropped_samples	3270.579363	Dropped 2 samples	n/a	n/a	n/a	n/a	n/a	n/a	2	UoHDataOffsetStream
433.242105	0.000000	1-back	3270.927170	Steps:1 KeyPress:False Matched:True	0	1	false	true	Wrong	false	n/a	n-backMarkers
433.250826	0.004000	dropped_samples	3270.935891	Dropped 1 samples	n/a	n/a	n/a	n/a	n/a	n/a	1	UoHDataOffsetStream
434.598557	0.012000	dropped_samples	3272.283622	Dropped 3 samples	n/a	n/a	n/a	n/a	n/a	n/a	3	UoHDataOffsetStream
434.943992	0.000000	1-back	3272.629057	Steps:1 KeyPress:False Matched:False	1	1	false	false	Correct	false	n/a	n-backMarkers
436.082823	0.004000	dropped_samples	3273.767888	Dropped 1 samples	n/a	n/a	n/a	n/a	n/a	n/a	1	UoHDataOffsetStream
436.644588	0.000000	1-back	3274.329653	Steps:1 KeyPress:True Matched:False	0	1	true	false	Wrong	false	n/a	n-backMarkers
436.689010	0.024000	dropped_samples	3274.374075	Dropped 6 samples	n/a	n/a	n/a	n/a	n/a	n/a	6	UoHDataOffsetStream
436.732132	0.032000	dropped_samples	3274.417197	Dropped 8 samples	n/a	n/a	n/a	n/a	n/a	n/a	8	UoHDataOffsetStream
437.523961	0.008000	dropped_samples	3275.209026	Dropped 2 samples	n/a	n/a	n/a	n/a	n/a	n/a	2	UoHDataOffsetStream
437.686914	0.012000	dropped_samples	3275.371979	Dropped 3 samples	n/a	n/a	n/a	n/a	n/a	n/a	3	UoHDataOffsetStream
437.687436	0.012000	dropped_samples	3275.372501	Dropped 3 samples	n/a	n/a	n/a	n/a	n/a	n/a	3	UoHDataOffsetStream
437.718461	0.012000	dropped_samples	3275.403526	Dropped 3 samples	n/a	n/a	n/a	n/a	n/a	n/a	3	UoHDataOffsetStream
437.884504	0.004000	dropped_samples	3275.569569	Dropped 1 samples	n/a	n/a	n/a	n/a	n/a	n/a	1	UoHDataOffsetStream
438.345497	0.000000	1-back	3276.030562	Steps:1 KeyPress:True Matched:True	1	1	true	true	Correct	false	n/a	n-backMarkers
439.168056	0.028000	dropped_samples	3276.853121	Dropped 7 samples	n/a	n/a	n/a	n/a	n/a	n/a	7	UoHDataOffsetStream
439.202830	0.116000	dropped_samples	3276.887895	Dropped 29 samples	n/a	n/a	n/a	n/a	n/a	n/a	29	UoHDataOffsetStream
439.324921	0.004000	dropped_samples	3277.009986	Dropped 1 samples	n/a	n/a	n/a	n/a	n/a	n/a	1	UoHDataOffsetStream
439.925707	0.012000	dropped_samples	3277.610772	Dropped 3 samples	n/a	n/a	n/a	n/a	n/a	n/a	3	UoHDataOffsetStream
440.046304	0.000000	1-back	3277.731369	Steps:1 KeyPress:False Matched:True	0	1	false	true	Wrong	false	n/a	n-backMarkers
441.556348	0.012000	dropped_samples	3279.241413	Dropped 3 samples	n/a	n/a	n/a	n/a	n/a	n/a	3	UoHDataOffsetStream
441.746460	0.000000	1-back	3279.431525	Steps:1 KeyPress:False Matched:True	0	1	false	true	Wrong	false	n/a	n-backMarkers
442.629965	0.004000	dropped_samples	3280.315031	Dropped 1 samples	n/a	n/a	n/a	n/a	n/a	n/a	1	UoHDataOffsetStream
442.689068	0.008000	dropped_samples	3280.374133	Dropped 2 samples	n/a	n/a	n/a	n/a	n/a	n/a	2	UoHDataOffsetStream
442.733098	0.040000	dropped_samples	3280.418163	Dropped 10 samples	n/a	n/a	n/a	n/a	n/a	n/a	10	UoHDataOffsetStream
443.447276	0.000000	1-back	3281.132341	Steps:1 KeyPress:False Matched:False	1	1	false	false	Correct	false	n/a	n-backMarkers
443.652139	0.012000	dropped_samples	3281.337204	Dropped 3 samples	n/a	n/a	n/a	n/a	n/a	n/a	3	UoHDataOffsetStream
443.721144	0.020000	dropped_samples	3281.406209	Dropped 5 samples	n/a	n/a	n/a	n/a	n/a	n/a	5	UoHDataOffsetStream
443.763452	0.028000	dropped_samples	3281.448517	Dropped 7 samples	n/a	n/a	n/a	n/a	n/a	n/a	7	UoHDataOffsetStream
444.774131	0.048000	dropped_samples	3282.459196	Dropped 12 samples	n/a	n/a	n/a	n/a	n/a	n/a	12	UoHDataOffsetStream
445.013350	0.008000	dropped_samples	3282.698416	Dropped 2 samples	n/a	n/a	n/a	n/a	n/a	n/a	2	UoHDataOffsetStream
445.148296	0.000000	1-back	3282.833361	Steps:1 KeyPress:False Matched:False	1	1	false	false	Correct	false	n/a	n-backMarkers
445.325982	0.008000	dropped_samples	3283.011047	Dropped 2 samples	n/a	n/a	n/a	n/a	n/a	n/a	2	UoHDataOffsetStream
446.848824	0.000000	1-back	3284.533889	Steps:1 KeyPress:True Matched:False	0	1	true	false	Wrong	false	n/a	n-backMarkers
448.027549	0.004000	dropped_samples	3285.712614	Dropped 1 samples	n/a	n/a	n/a	n/a	n/a	n/a	1	UoHDataOffsetStream
448.549488	0.000000	1-back	3286.234553	Steps:1 KeyPress:False Matched:True	0	1	false	true	Wrong	false	n/a	n-backMarkers
448.923967	0.012000	dropped_samples	3286.609032	Dropped 3 samples	n/a	n/a	n/a	n/a	n/a	n/a	3	UoHDataOffsetStream
448.990915	0.012000	dropped_samples	3286.675980	Dropped 3 samples	n/a	n/a	n/a	n/a	n/a	n/a	3	UoHDataOffsetStream
448.998047	0.012000	dropped_samples	3286.683112	Dropped 3 samples	n/a	n/a	n/a	n/a	n/a	n/a	3	UoHDataOffsetStream
449.046626	0.068000	dropped_samples	3286.731691	Dropped 17 samples	n/a	n/a	n/a	n/a	n/a	n/a	17	UoHDataOffsetStream
449.676864	0.008000	dropped_samples	3287.361929	Dropped 2 samples	n/a	n/a	n/a	n/a	n/a	n/a	2	UoHDataOffsetStream
449.743453	0.012000	dropped_samples	3287.428518	Dropped 3 samples	n/a	n/a	n/a	n/a	n/a	n/a	3	UoHDataOffsetStream
449.788811	0.048000	dropped_samples	3287.473876	Dropped 12 samples	n/a	n/a	n/a	n/a	n/a	n/a	12	UoHDataOffsetStream
449.935419	0.008000	dropped_samples	3287.620484	Dropped 2 samples	n/a	n/a	n/a	n/a	n/a	n/a	2	UoHDataOffsetStream
450.251132	0.000000	1-back	3287.936197	Steps:1 KeyPress:False Matched:True	0	1	false	true	Wrong	false	n/a	n-backMarkers
450.412108	0.008000	dropped_samples	3288.097173	Dropped 2 samples	n/a	n/a	n/a	n/a	n/a	n/a	2	UoHDataOffsetStream
450.703104	0.012000	dropped_samples	3288.388169	Dropped 3 samples	n/a	n/a	n/a	n/a	n/a	n/a	3	UoHDataOffsetStream
450.705190	0.028000	dropped_samples	3288.390255	Dropped 7 samples	n/a	n/a	n/a	n/a	n/a	n/a	7	UoHDataOffsetStream
450.750751	0.012000	dropped_samples	3288.435816	Dropped 3 samples	n/a	n/a	n/a	n/a	n/a	n/a	3	UoHDataOffsetStream
451.878641	0.008000	dropped_samples	3289.563706	Dropped 2 samples	n/a	n/a	n/a	n/a	n/a	n/a	2	UoHDataOffsetStream
451.953272	0.000000	1-back	3289.638337	Steps:1 KeyPress:False Matched:False	1	1	false	false	Correct	false	n/a	n-backMarkers
452.259505	0.004000	dropped_samples	3289.944570	Dropped 1 samples	n/a	n/a	n/a	n/a	n/a	n/a	1	UoHDataOffsetStream
453.654945	0.000000	1-back	3291.340010	Steps:1 KeyPress:False Matched:False	1	1	false	false	Correct	false	n/a	n-backMarkers
454.276118	0.004000	dropped_samples	3291.961183	Dropped 1 samples	n/a	n/a	n/a	n/a	n/a	n/a	1	UoHDataOffsetStream
454.521466	0.012000	dropped_samples	3292.206531	Dropped 3 samples	n/a	n/a	n/a	n/a	n/a	n/a	3	UoHDataOffsetStream
454.779026	0.020000	dropped_samples	3292.464091	Dropped 5 samples	n/a	n/a	n/a	n/a	n/a	n/a	5	UoHDataOffsetStream
455.356257	0.000000	1-back	3293.041322	Steps:1 KeyPress:True Matched:False	0	1	true	false	Wrong	false	n/a	n-backMarkers
455.881144	0.008000	dropped_samples	3293.566209	Dropped 2 samples	n/a	n/a	n/a	n/a	n/a	n/a	2	UoHDataOffsetStream
455.897373	0.012000	dropped_samples	3293.582438	Dropped 3 samples	n/a	n/a	n/a	n/a	n/a	n/a	3	UoHDataOffsetStream
455.918843	0.012000	dropped_samples	3293.603908	Dropped 3 samples	n/a	n/a	n/a	n/a	n/a	n/a	3	UoHDataOffsetStream
456.006567	0.064000	dropped_samples	3293.691632	Dropped 16 samples	n/a	n/a	n/a	n/a	n/a	n/a	16	UoHDataOffsetStream
457.056443	0.000000	1-back	3294.741508	Steps:1 KeyPress:False Matched:True	0	1	false	true	Wrong	false	n/a	n-backMarkers
457.403674	0.024000	dropped_samples	3295.088739	Dropped 6 samples	n/a	n/a	n/a	n/a	n/a	n/a	6	UoHDataOffsetStream
457.445070	0.152000	dropped_samples	3295.130135	Dropped 38 samples	n/a	n/a	n/a	n/a	n/a	n/a	38	UoHDataOffsetStream
457.733131	0.004000	dropped_samples	3295.418196	Dropped 1 samples	n/a	n/a	n/a	n/a	n/a	n/a	1	UoHDataOffsetStream
458.757690	0.000000	1-back	3296.442755	Steps:1 KeyPress:False Matched:False	1	1	false	false	Correct	false	n/a	n-backMarkers
459.873311	0.004000	dropped_samples	3297.558376	Dropped 1 samples	n/a	n/a	n/a	n/a	n/a	n/a	1	UoHDataOffsetStream
460.457763	0.000000	1-back	3298.142828	Steps:1 KeyPress:True Matched:False	0	1	true	false	Wrong	false	n/a	n-backMarkers
460.727780	0.012000	dropped_samples	3298.412845	Dropped 3 samples	n/a	n/a	n/a	n/a	n/a	n/a	3	UoHDataOffsetStream
460.795085	0.028000	dropped_samples	3298.480150	Dropped 7 samples	n/a	n/a	n/a	n/a	n/a	n/a	7	UoHDataOffsetStream
460.796395	0.012000	dropped_samples	3298.481460	Dropped 3 samples	n/a	n/a	n/a	n/a	n/a	n/a	3	UoHDataOffsetStream
460.828884	0.016000	dropped_samples	3298.513949	Dropped 4 samples	n/a	n/a	n/a	n/a	n/a	n/a	4	UoHDataOffsetStream
461.501655	0.012000	dropped_samples	3299.186720	Dropped 3 samples	n/a	n/a	n/a	n/a	n/a	n/a	3	UoHDataOffsetStream
461.707240	0.008000	dropped_samples	3299.392305	Dropped 2 samples	n/a	n/a	n/a	n/a	n/a	n/a	2	UoHDataOffsetStream
461.708358	0.008000	dropped_samples	3299.393423	Dropped 2 samples	n/a	n/a	n/a	n/a	n/a	n/a	2	UoHDataOffsetStream
461.741981	0.012000	dropped_samples	3299.427046	Dropped 3 samples	n/a	n/a	n/a	n/a	n/a	n/a	3	UoHDataOffsetStream
462.158604	0.000000	1-back	3299.843669	Steps:1 KeyPress:False Matched:True	0	1	false	true	Wrong	false	n/a	n-backMarkers
462.531062	0.008000	dropped_samples	3300.216127	Dropped 2 samples	n/a	n/a	n/a	n/a	n/a	n/a	2	UoHDataOffsetStream
462.558367	0.012000	dropped_samples	3300.243432	Dropped 3 samples	n/a	n/a	n/a	n/a	n/a	n/a	3	UoHDataOffsetStream
462.609820	0.012000	dropped_samples	3300.294885	Dropped 3 samples	n/a	n/a	n/a	n/a	n/a	n/a	3	UoHDataOffsetStream
463.859592	0.000000	1-back	3301.544657	Steps:1 KeyPress:False Matched:True	0	1	false	true	Wrong	false	n/a	n-backMarkers
465.150147	0.004000	dropped_samples	3302.835212	Dropped 1 samples	n/a	n/a	n/a	n/a	n/a	n/a	1	UoHDataOffsetStream
465.561160	0.000000	1-back	3303.246225	Steps:1 KeyPress:False Matched:False	1	1	false	false	Correct	false	n/a	n-backMarkers
467.107704	0.012000	dropped_samples	3304.792769	Dropped 3 samples	n/a	n/a	n/a	n/a	n/a	n/a	3	UoHDataOffsetStream
467.203786	0.012000	dropped_samples	3304.888851	Dropped 3 samples	n/a	n/a	n/a	n/a	n/a	n/a	3	UoHDataOffsetStream
467.205116	0.012000	dropped_samples	3304.890181	Dropped 3 samples	n/a	n/a	n/a	n/a	n/a	n/a	3	UoHDataOffsetStream
467.261580	0.000000	1-back	3304.946645	Steps:1 KeyPress:True Matched:False	0	1	true	false	Wrong	false	n/a	n-backMarkers
467.276548	0.068000	dropped_samples	3304.961613	Dropped 17 samples	n/a	n/a	n/a	n/a	n/a	n/a	17	UoHDataOffsetStream
467.321435	0.004000	dropped_samples	3305.006500	Dropped 1 samples	n/a	n/a	n/a	n/a	n/a	n/a	1	UoHDataOffsetStream
467.689509	0.020000	dropped_samples	3305.374574	Dropped 5 samples	n/a	n/a	n/a	n/a	n/a	n/a	5	UoHDataOffsetStream
467.718515	0.012000	dropped_samples	3305.403580	Dropped 3 samples	n/a	n/a	n/a	n/a	n/a	n/a	3	UoHDataOffsetStream
468.792788	0.024000	dropped_samples	3306.477853	Dropped 6 samples	n/a	n/a	n/a	n/a	n/a	n/a	6	UoHDataOffsetStream
468.958027	0.024000	dropped_samples	3306.643092	Dropped 6 samples	n/a	n/a	n/a	n/a	n/a	n/a	6	UoHDataOffsetStream
468.963844	0.000000	1-back	3306.648909	Steps:1 KeyPress:False Matched:True	0	1	false	true	Wrong	false	n/a	n-backMarkers
468.963953	0.012000	dropped_samples	3306.649018	Dropped 3 samples	n/a	n/a	n/a	n/a	n/a	n/a	3	UoHDataOffsetStream
469.012485	0.040000	dropped_samples	3306.697550	Dropped 10 samples	n/a	n/a	n/a	n/a	n/a	n/a	10	UoHDataOffsetStream
470.664336	0.000000	1-back	3308.349401	Steps:1 KeyPress:False Matched:True	0	1	false	true	Wrong	false	n/a	n-backMarkers
470.740993	0.012000	dropped_samples	3308.426058	Dropped 3 samples	n/a	n/a	n/a	n/a	n/a	n/a	3	UoHDataOffsetStream
470.863116	0.004000	dropped_samples	3308.548181	Dropped 1 samples	n/a	n/a	n/a	n/a	n/a	n/a	1	UoHDataOffsetStream
472.366242	0.000000	1-back	3310.051307	Steps:1 KeyPress:False Matched:False	1	1	false	false	Correct	false	n/a	n-backMarkers
472.583023	0.028000	dropped_samples	3310.268088	Dropped 7 samples	n/a	n/a	n/a	n/a	n/a	n/a	7	UoHDataOffsetStream
472.733146	0.008000	dropped_samples	3310.418211	Dropped 2 samples	n/a	n/a	n/a	n/a	n/a	n/a	2	UoHDataOffsetStream
472.874765	0.012000	dropped_samples	3310.559830	Dropped 3 samples	n/a	n/a	n/a	n/a	n/a	n/a	3	UoHDataOffsetStream
473.660366	0.028000	dropped_samples	3311.345431	Dropped 7 samples	n/a	n/a	n/a	n/a	n/a	n/a	7	UoHDataOffsetStream
473.778325	0.020000	dropped_samples	3311.463390	Dropped 5 samples	n/a	n/a	n/a	n/a	n/a	n/a	5	UoHDataOffsetStream
473.812343	0.012000	dropped_samples	3311.497408	Dropped 3 samples	n/a	n/a	n/a	n/a	n/a	n/a	3	UoHDataOffsetStream
474.066502	0.000000	1-back	3311.751567	Steps:1 KeyPress:False Matched:False	1	1	false	false	Correct	false	n/a	n-backMarkers
474.124844	0.004000	dropped_samples	3311.809909	Dropped 1 samples	n/a	n/a	n/a	n/a	n/a	n/a	1	UoHDataOffsetStream
474.793326	0.004000	dropped_samples	3312.478391	Dropped 1 samples	n/a	n/a	n/a	n/a	n/a	n/a	1	UoHDataOffsetStream
474.794093	0.012000	dropped_samples	3312.479158	Dropped 3 samples	n/a	n/a	n/a	n/a	n/a	n/a	3	UoHDataOffsetStream
474.859193	0.012000	dropped_samples	3312.544258	Dropped 3 samples	n/a	n/a	n/a	n/a	n/a	n/a	3	UoHDataOffsetStream
474.891487	0.028000	dropped_samples	3312.576552	Dropped 7 samples	n/a	n/a	n/a	n/a	n/a	n/a	7	UoHDataOffsetStream
475.350413	0.012000	dropped_samples	3313.035478	Dropped 3 samples	n/a	n/a	n/a	n/a	n/a	n/a	3	UoHDataOffsetStream
475.766543	0.000000	1-back	3313.451608	Steps:1 KeyPress:False Matched:False	1	1	false	false	Correct	false	n/a	n-backMarkers
476.633410	0.004000	dropped_samples	3314.318475	Dropped 1 samples	n/a	n/a	n/a	n/a	n/a	n/a	1	UoHDataOffsetStream
476.634277	0.044000	dropped_samples	3314.319342	Dropped 11 samples	n/a	n/a	n/a	n/a	n/a	n/a	11	UoHDataOffsetStream
476.668682	0.012000	dropped_samples	3314.353747	Dropped 3 samples	n/a	n/a	n/a	n/a	n/a	n/a	3	UoHDataOffsetStream
477.254676	0.008000	dropped_samples	3314.939741	Dropped 2 samples	n/a	n/a	n/a	n/a	n/a	n/a	2	UoHDataOffsetStream
477.293728	0.012000	dropped_samples	3314.978793	Dropped 3 samples	n/a	n/a	n/a	n/a	n/a	n/a	3	UoHDataOffsetStream
477.468337	0.000000	1-back	3315.153402	Steps:1 KeyPress:True Matched:False	0	1	true	false	Wrong	false	n/a	n-backMarkers
477.606175	0.012000	dropped_samples	3315.291240	Dropped 3 samples	n/a	n/a	n/a	n/a	n/a	n/a	3	UoHDataOffsetStream
478.679721	0.012000	dropped_samples	3316.364786	Dropped 3 samples	n/a	n/a	n/a	n/a	n/a	n/a	3	UoHDataOffsetStream
478.787364	0.028000	dropped_samples	3316.472429	Dropped 7 samples	n/a	n/a	n/a	n/a	n/a	n/a	7	UoHDataOffsetStream
478.788187	0.016000	dropped_samples	3316.473252	Dropped 4 samples	n/a	n/a	n/a	n/a	n/a	n/a	4	UoHDataOffsetStream
478.826974	0.012000	dropped_samples	3316.512039	Dropped 3 samples	n/a	n/a	n/a	n/a	n/a	n/a	3	UoHDataOffsetStream
479.139507	0.012000	dropped_samples	3316.824572	Dropped 3 samples	n/a	n/a	n/a	n/a	n/a	n/a	3	UoHDataOffsetStream
479.169480	0.000000	1-back	3316.854545	Steps:1 KeyPress:False Matched:True	0	1	false	true	Wrong	false	n/a	n-backMarkers
479.633917	0.012000	dropped_samples	3317.318982	Dropped 3 samples	n/a	n/a	n/a	n/a	n/a	n/a	3	UoHDataOffsetStream
479.647482	0.032000	dropped_samples	3317.332548	Dropped 8 samples	n/a	n/a	n/a	n/a	n/a	n/a	8	UoHDataOffsetStream
480.513901	0.024000	dropped_samples	3318.198966	Dropped 6 samples	n/a	n/a	n/a	n/a	n/a	n/a	6	UoHDataOffsetStream
480.531124	0.008000	dropped_samples	3318.216189	Dropped 2 samples	n/a	n/a	n/a	n/a	n/a	n/a	2	UoHDataOffsetStream
480.870180	0.000000	1-back	3318.555245	Steps:1 KeyPress:False Matched:True	0	1	false	true	Wrong	false	n/a	n-backMarkers
481.063289	0.008000	dropped_samples	3318.748354	Dropped 2 samples	n/a	n/a	n/a	n/a	n/a	n/a	2	UoHDataOffsetStream
481.781052	0.008000	dropped_samples	3319.466117	Dropped 2 samples	n/a	n/a	n/a	n/a	n/a	n/a	2	UoHDataOffsetStream
482.570816	0.000000	1-back	3320.255881	Steps:1 KeyPress:False Matched:False	1	1	false	false	Correct	false	n/a	n-backMarkers
483.099555	0.004000	dropped_samples	3320.784620	Dropped 1 samples	n/a	n/a	n/a	n/a	n/a	n/a	1	UoHDataOffsetStream
484.272326	0.000000	1-back	3321.957391	Steps:1 KeyPress:False Matched:False	1	1	false	false	Correct	false	n/a	n-backMarkers
484.771279	0.012000	dropped_samples	3322.456344	Dropped 3 samples	n/a	n/a	n/a	n/a	n/a	n/a	3	UoHDataOffsetStream
484.774392	0.028000	dropped_samples	3322.459457	Dropped 7 samples	n/a	n/a	n/a	n/a	n/a	n/a	7	UoHDataOffsetStream
484.803572	0.008000	dropped_samples	3322.488637	Dropped 2 samples	n/a	n/a	n/a	n/a	n/a	n/a	2	UoHDataOffsetStream
485.973393	0.000000	1-back	3323.658458	Steps:1 KeyPress:False Matched:False	1	1	false	false	Correct	false	n/a	n-backMarkers
486.160090	0.024000	dropped_samples	3323.845155	Dropped 6 samples	n/a	n/a	n/a	n/a	n/a	n/a	6	UoHDataOffsetStream
486.161453	0.012000	dropped_samples	3323.846518	Dropped 3 samples	n/a	n/a	n/a	n/a	n/a	n/a	3	UoHDataOffsetStream
486.195092	0.108000	dropped_samples	3323.880157	Dropped 27 samples	n/a	n/a	n/a	n/a	n/a	n/a	27	UoHDataOffsetStream
487.037015	0.008000	dropped_samples	3324.722080	Dropped 2 samples	n/a	n/a	n/a	n/a	n/a	n/a	2	UoHDataOffsetStream
487.041620	0.016000	dropped_samples	3324.726685	Dropped 4 samples	n/a	n/a	n/a	n/a	n/a	n/a	4	UoHDataOffsetStream
487.083787	0.084000	dropped_samples	3324.768852	Dropped 21 samples	n/a	n/a	n/a	n/a	n/a	n/a	21	UoHDataOffsetStream
487.675241	0.000000	1-back	3325.360307	Steps:1 KeyPress:False Matched:False	1	1	false	false	Correct	false	n/a	n-backMarkers
488.358211	0.004000	dropped_samples	3326.043276	Dropped 1 samples	n/a	n/a	n/a	n/a	n/a	n/a	1	UoHDataOffsetStream
488.499837	0.004000	dropped_samples	3326.184902	Dropped 1 samples	n/a	n/a	n/a	n/a	n/a	n/a	1	UoHDataOffsetStream
489.027128	0.004000	dropped_samples	3326.712193	Dropped 1 samples	n/a	n/a	n/a	n/a	n/a	n/a	1	UoHDataOffsetStream
489.375671	0.000000	1-back	3327.060736	Steps:1 KeyPress:True Matched:False	0	1	true	false	Wrong	false	n/a	n-backMarkers
490.594607	0.012000	dropped_samples	3328.279672	Dropped 3 samples	n/a	n/a	n/a	n/a	n/a	n/a	3	UoHDataOffsetStream
490.731453	0.008000	dropped_samples	3328.416518	Dropped 2 samples	n/a	n/a	n/a	n/a	n/a	n/a	2	UoHDataOffsetStream
491.076274	0.000000	1-back	3328.761339	Steps:1 KeyPress:False Matched:True	0	1	false	true	Wrong	false	n/a	n-backMarkers
491.713034	0.012000	dropped_samples	3329.398099	Dropped 3 samples	n/a	n/a	n/a	n/a	n/a	n/a	3	UoHDataOffsetStream
491.818569	0.008000	dropped_samples	3329.503634	Dropped 2 samples	n/a	n/a	n/a	n/a	n/a	n/a	2	UoHDataOffsetStream
491.820159	0.032000	dropped_samples	3329.505224	Dropped 8 samples	n/a	n/a	n/a	n/a	n/a	n/a	8	UoHDataOffsetStream
491.859264	0.012000	dropped_samples	3329.544329	Dropped 3 samples	n/a	n/a	n/a	n/a	n/a	n/a	3	UoHDataOffsetStream
492.078988	0.012000	dropped_samples	3329.764053	Dropped 3 samples	n/a	n/a	n/a	n/a	n/a	n/a	3	UoHDataOffsetStream
492.741079	0.028000	dropped_samples	3330.426144	Dropped 7 samples	n/a	n/a	n/a	n/a	n/a	n/a	7	UoHDataOffsetStream
492.772263	0.040000	dropped_samples	3330.457328	Dropped 10 samples	n/a	n/a	n/a	n/a	n/a	n/a	10	UoHDataOffsetStream
492.776398	0.000000	1-back	3330.461463	Steps:1 KeyPress:False Matched:False	1	1	false	false	Correct	false	n/a	n-backMarkers
492.987179	0.012000	dropped_samples	3330.672244	Dropped 3 samples	n/a	n/a	n/a	n/a	n/a	n/a	3	UoHDataOffsetStream
493.150174	0.004000	dropped_samples	3330.835239	Dropped 1 samples	n/a	n/a	n/a	n/a	n/a	n/a	1	UoHDataOffsetStream
493.182439	0.004000	dropped_samples	3330.867504	Dropped 1 samples	n/a	n/a	n/a	n/a	n/a	n/a	1	UoHDataOffsetStream
494.477558	0.000000	1-back	3332.162623	Steps:1 KeyPress:True Matched:False	0	1	true	false	Wrong	false	n/a	n-backMarkers
496.156049	0.004000	dropped_samples	3333.841114	Dropped 1 samples	n/a	n/a	n/a	n/a	n/a	n/a	1	UoHDataOffsetStream
496.178878	0.000000	1-back	3333.863943	Steps:1 KeyPress:False Matched:True	0	1	false	true	Wrong	false	n/a	n-backMarkers
496.493710	0.012000	dropped_samples	3334.178775	Dropped 3 samples	n/a	n/a	n/a	n/a	n/a	n/a	3	UoHDataOffsetStream
496.908946	0.008000	dropped_samples	3334.594011	Dropped 2 samples	n/a	n/a	n/a	n/a	n/a	n/a	2	UoHDataOffsetStream
497.086877	0.020000	dropped_samples	3334.771942	Dropped 5 samples	n/a	n/a	n/a	n/a	n/a	n/a	5	UoHDataOffsetStream
497.093852	0.012000	dropped_samples	3334.778917	Dropped 3 samples	n/a	n/a	n/a	n/a	n/a	n/a	3	UoHDataOffsetStream
497.142478	0.044000	dropped_samples	3334.827543	Dropped 11 samples	n/a	n/a	n/a	n/a	n/a	n/a	11	UoHDataOffsetStream
497.880551	0.000000	1-back	3335.565616	Steps:1 KeyPress:False Matched:False	1	1	false	false	Correct	false	n/a	n-backMarkers
498.024613	0.012000	dropped_samples	3335.709678	Dropped 3 samples	n/a	n/a	n/a	n/a	n/a	n/a	3	UoHDataOffsetStream
498.090551	0.016000	dropped_samples	3335.775616	Dropped 4 samples	n/a	n/a	n/a	n/a	n/a	n/a	4	UoHDataOffsetStream
498.134038	0.012000	dropped_samples	3335.819103	Dropped 3 samples	n/a	n/a	n/a	n/a	n/a	n/a	3	UoHDataOffsetStream
498.159800	0.068000	dropped_samples	3335.844865	Dropped 17 samples	n/a	n/a	n/a	n/a	n/a	n/a	17	UoHDataOffsetStream
498.708844	0.008000	dropped_samples	3336.393909	Dropped 2 samples	n/a	n/a	n/a	n/a	n/a	n/a	2	UoHDataOffsetStream
498.711176	0.008000	dropped_samples	3336.396241	Dropped 2 samples	n/a	n/a	n/a	n/a	n/a	n/a	2	UoHDataOffsetStream
498.748826	0.036000	dropped_samples	3336.433891	Dropped 9 samples	n/a	n/a	n/a	n/a	n/a	n/a	9	UoHDataOffsetStream
499.012528	0.008000	dropped_samples	3336.697593	Dropped 2 samples	n/a	n/a	n/a	n/a	n/a	n/a	2	UoHDataOffsetStream
499.183499	0.012000	dropped_samples	3336.868564	Dropped 3 samples	n/a	n/a	n/a	n/a	n/a	n/a	3	UoHDataOffsetStream
499.581211	0.000000	1-back	3337.266276	Steps:1 KeyPress:True Matched:False	0	1	true	false	Wrong	false	n/a	n-backMarkers
499.613106	0.028000	dropped_samples	3337.298171	Dropped 7 samples	n/a	n/a	n/a	n/a	n/a	n/a	7	UoHDataOffsetStream
500.023327	0.004000	dropped_samples	3337.708392	Dropped 1 samples	n/a	n/a	n/a	n/a	n/a	n/a	1	UoHDataOffsetStream
501.102626	0.004000	dropped_samples	3338.787691	Dropped 1 samples	n/a	n/a	n/a	n/a	n/a	n/a	1	UoHDataOffsetStream
501.151207	0.012000	dropped_samples	3338.836272	Dropped 3 samples	n/a	n/a	n/a	n/a	n/a	n/a	3	UoHDataOffsetStream
501.283088	0.000000	1-back	3338.968153	Steps:1 KeyPress:False Matched:True	0	1	false	true	Wrong	false	n/a	n-backMarkers
501.341609	0.008000	dropped_samples	3339.026674	Dropped 2 samples	n/a	n/a	n/a	n/a	n/a	n/a	2	UoHDataOffsetStream
502.108216	0.004000	dropped_samples	3339.793281	Dropped 1 samples	n/a	n/a	n/a	n/a	n/a	n/a	1	UoHDataOffsetStream
502.820926	0.008000	dropped_samples	3340.505991	Dropped 2 samples	n/a	n/a	n/a	n/a	n/a	n/a	2	UoHDataOffsetStream
502.984130	0.000000	1-back	3340.669195	Steps:1 KeyPress:False Matched:False	1	1	false	false	Correct	false	n/a	n-backMarkers
502.987416	0.016000	dropped_samples	3340.672481	Dropped 4 samples	n/a	n/a	n/a	n/a	n/a	n/a	4	UoHDataOffsetStream
502.988802	0.012000	dropped_samples	3340.673867	Dropped 3 samples	n/a	n/a	n/a	n/a	n/a	n/a	3	UoHDataOffsetStream
503.052784	0.044000	dropped_samples	3340.737849	Dropped 11 samples	n/a	n/a	n/a	n/a	n/a	n/a	11	UoHDataOffsetStream
503.991249	0.008000	dropped_samples	3341.676314	Dropped 2 samples	n/a	n/a	n/a	n/a	n/a	n/a	2	UoHDataOffsetStream
503.992492	0.012000	dropped_samples	3341.677557	Dropped 3 samples	n/a	n/a	n/a	n/a	n/a	n/a	3	UoHDataOffsetStream
504.027228	0.088000	dropped_samples	3341.712293	Dropped 22 samples	n/a	n/a	n/a	n/a	n/a	n/a	22	UoHDataOffsetStream
504.685304	0.000000	1-back	3342.370369	Steps:1 KeyPress:True Matched:False	0	1	true	false	Wrong	false	n/a	n-backMarkers
505.120689	0.028000	dropped_samples	3342.805754	Dropped 7 samples	n/a	n/a	n/a	n/a	n/a	n/a	7	UoHDataOffsetStream
505.122043	0.012000	dropped_samples	3342.807108	Dropped 3 samples	n/a	n/a	n/a	n/a	n/a	n/a	3	UoHDataOffsetStream
505.160039	0.092000	dropped_samples	3342.845104	Dropped 23 samples	n/a	n/a	n/a	n/a	n/a	n/a	23	UoHDataOffsetStream
506.386457	0.000000	1-back	3344.071522	Steps:1 KeyPress:False Matched:True	0	1	false	true	Wrong	false	n/a	n-backMarkers
508.088140	0.000000	1-back	3345.773205	Steps:1 KeyPress:False Matched:False	1	1	false	false	Correct	false	n/a	n-backMarkers
508.563459	0.008000	dropped_samples	3346.248524	Dropped 2 samples	n/a	n/a	n/a	n/a	n/a	n/a	2	UoHDataOffsetStream
509.261868	0.004000	dropped_samples	3346.946933	Dropped 1 samples	n/a	n/a	n/a	n/a	n/a	n/a	1	UoHDataOffsetStream
509.322461	0.008000	dropped_samples	3347.007526	Dropped 2 samples	n/a	n/a	n/a	n/a	n/a	n/a	2	UoHDataOffsetStream
509.359189	0.004000	dropped_samples	3347.044254	Dropped 1 samples	n/a	n/a	n/a	n/a	n/a	n/a	1	UoHDataOffsetStream
509.691304	0.012000	dropped_samples	3347.376369	Dropped 3 samples	n/a	n/a	n/a	n/a	n/a	n/a	3	UoHDataOffsetStream
509.788941	0.000000	1-back	3347.474006	Steps:1 KeyPress:True Matched:False	0	1	true	false	Wrong	false	n/a	n-backMarkers
510.555695	0.004000	dropped_samples	3348.240760	Dropped 1 samples	n/a	n/a	n/a	n/a	n/a	n/a	1	UoHDataOffsetStream
511.473930	0.008000	dropped_samples	3349.158995	Dropped 2 samples	n/a	n/a	n/a	n/a	n/a	n/a	2	UoHDataOffsetStream
511.489261	0.000000	1-back	3349.174326	Steps:1 KeyPress:False Matched:False	1	1	false	false	Correct	false	n/a	n-backMarkers
511.517408	0.008000	dropped_samples	3349.202473	Dropped 2 samples	n/a	n/a	n/a	n/a	n/a	n/a	2	UoHDataOffsetStream
511.781234	0.012000	dropped_samples	3349.466299	Dropped 3 samples	n/a	n/a	n/a	n/a	n/a	n/a	3	UoHDataOffsetStream
511.951976	0.004000	dropped_samples	3349.637041	Dropped 1 samples	n/a	n/a	n/a	n/a	n/a	n/a	1	UoHDataOffsetStream
513.190408	0.000000	1-back	3350.875473	Steps:1 KeyPress:True Matched:False	0	1	true	false	Wrong	false	n/a	n-backMarkers
513.746773	0.012000	dropped_samples	3351.431838	Dropped 3 samples	n/a	n/a	n/a	n/a	n/a	n/a	3	UoHDataOffsetStream
514.137076	0.004000	dropped_samples	3351.822141	Dropped 1 samples	n/a	n/a	n/a	n/a	n/a	n/a	1	UoHDataOffsetStream
514.183488	0.012000	dropped_samples	3351.868553	Dropped 3 samples	n/a	n/a	n/a	n/a	n/a	n/a	3	UoHDataOffsetStream
514.349447	0.004000	dropped_samples	3352.034512	Dropped 1 samples	n/a	n/a	n/a	n/a	n/a	n/a	1	UoHDataOffsetStream
514.398312	0.004000	dropped_samples	3352.083377	Dropped 1 samples	n/a	n/a	n/a	n/a	n/a	n/a	1	UoHDataOffsetStream
514.891814	0.000000	1-back	3352.576879	Steps:1 KeyPress:False Matched:True	0	1	false	true	Wrong	false	n/a	n-backMarkers
516.592325	0.000000	1-back	3354.277390	Steps:1 KeyPress:False Matched:False	1	1	false	false	Correct	false	n/a	n-backMarkers
518.292723	0.000000	1-back	3355.977788	Steps:1 KeyPress:True Matched:False	0	1	true	false	Wrong	false	n/a	n-backMarkers
519.993396	0.000000	1-back	3357.678461	Steps:1 KeyPress:False Matched:True	0	1	false	true	Wrong	false	n/a	n-backMarkers
520.252874	0.004000	dropped_samples	3357.937939	Dropped 1 samples	n/a	n/a	n/a	n/a	n/a	n/a	1	UoHDataOffsetStream
520.374856	0.008000	dropped_samples	3358.059921	Dropped 2 samples	n/a	n/a	n/a	n/a	n/a	n/a	2	UoHDataOffsetStream
521.695957	0.000000	1-back	3359.381022	Steps:1 KeyPress:False Matched:False	1	1	false	false	Correct	false	n/a	n-backMarkers
523.397196	0.000000	1-back	3361.082261	Steps:1 KeyPress:True Matched:False	0	1	true	false	Wrong	false	n/a	n-backMarkers
525.097590	0.000000	1-back	3362.782655	Steps:1 KeyPress:False Matched:False	1	1	false	false	Correct	false	n/a	n-backMarkers
525.677639	0.004000	dropped_samples	3363.362704	Dropped 1 samples	n/a	n/a	n/a	n/a	n/a	n/a	1	UoHDataOffsetStream
525.843609	0.004000	dropped_samples	3363.528674	Dropped 1 samples	n/a	n/a	n/a	n/a	n/a	n/a	1	UoHDataOffsetStream
526.245505	0.004000	dropped_samples	3363.930570	Dropped 1 samples	n/a	n/a	n/a	n/a	n/a	n/a	1	UoHDataOffsetStream
526.799125	0.000000	1-back	3364.484190	Steps:1 KeyPress:True Matched:False	0	1	true	false	Wrong	false	n/a	n-backMarkers
527.982253	0.012000	dropped_samples	3365.667318	Dropped 3 samples	n/a	n/a	n/a	n/a	n/a	n/a	3	UoHDataOffsetStream
527.983731	0.012000	dropped_samples	3365.668796	Dropped 3 samples	n/a	n/a	n/a	n/a	n/a	n/a	3	UoHDataOffsetStream
527.993925	0.012000	dropped_samples	3365.678990	Dropped 3 samples	n/a	n/a	n/a	n/a	n/a	n/a	3	UoHDataOffsetStream
527.995472	0.012000	dropped_samples	3365.680537	Dropped 3 samples	n/a	n/a	n/a	n/a	n/a	n/a	3	UoHDataOffsetStream
528.031142	0.068000	dropped_samples	3365.716207	Dropped 17 samples	n/a	n/a	n/a	n/a	n/a	n/a	17	UoHDataOffsetStream
528.613874	0.012000	dropped_samples	3366.298939	Dropped 3 samples	n/a	n/a	n/a	n/a	n/a	n/a	3	UoHDataOffsetStream
528.636719	0.004000	dropped_samples	3366.321784	Dropped 1 samples	n/a	n/a	n/a	n/a	n/a	n/a	1	UoHDataOffsetStream
528.642209	0.008000	dropped_samples	3366.327274	Dropped 2 samples	n/a	n/a	n/a	n/a	n/a	n/a	2	UoHDataOffsetStream
528.675650	0.024000	dropped_samples	3366.360715	Dropped 6 samples	n/a	n/a	n/a	n/a	n/a	n/a	6	UoHDataOffsetStream
529.710838	0.012000	dropped_samples	3367.395903	Dropped 3 samples	n/a	n/a	n/a	n/a	n/a	n/a	3	UoHDataOffsetStream
529.925636	0.004000	dropped_samples	3367.610701	Dropped 1 samples	n/a	n/a	n/a	n/a	n/a	n/a	1	UoHDataOffsetStream
531.605311	0.008000	dropped_samples	3369.290376	Dropped 2 samples	n/a	n/a	n/a	n/a	n/a	n/a	2	UoHDataOffsetStream
531.902606	0.012000	dropped_samples	3369.587671	Dropped 3 samples	n/a	n/a	n/a	n/a	n/a	n/a	3	UoHDataOffsetStream
532.830765	0.024000	dropped_samples	3370.515830	Dropped 6 samples	n/a	n/a	n/a	n/a	n/a	n/a	6	UoHDataOffsetStream
532.892921	0.004000	dropped_samples	3370.577986	Dropped 1 samples	n/a	n/a	n/a	n/a	n/a	n/a	1	UoHDataOffsetStream
532.894340	0.028000	dropped_samples	3370.579405	Dropped 7 samples	n/a	n/a	n/a	n/a	n/a	n/a	7	UoHDataOffsetStream
532.923682	0.020000	dropped_samples	3370.608747	Dropped 5 samples	n/a	n/a	n/a	n/a	n/a	n/a	5	UoHDataOffsetStream
533.370826	0.004000	dropped_samples	3371.055891	Dropped 1 samples	n/a	n/a	n/a	n/a	n/a	n/a	1	UoHDataOffsetStream
533.816521	0.008000	dropped_samples	3371.501586	Dropped 2 samples	n/a	n/a	n/a	n/a	n/a	n/a	2	UoHDataOffsetStream
