onset	duration	trial_type	timestamp_lsl	marker	response_accuracy	nback_level	key_press	matched	outcome	istutorial	dropped_samples	marker_stream
1.135010	0.004000	dropped_samples	9490.730438	Dropped 1 samples	n/a	n/a	n/a	n/a	n/a	n/a	1	UoHDataOffsetStream
1.662443	0.004000	dropped_samples	9491.257871	Dropped 1 samples	n/a	n/a	n/a	n/a	n/a	n/a	1	UoHDataOffsetStream
7.233672	0.004000	dropped_samples	9496.829100	Dropped 1 samples	n/a	n/a	n/a	n/a	n/a	n/a	1	UoHDataOffsetStream
8.215115	0.004000	dropped_samples	9497.810544	Dropped 1 samples	n/a	n/a	n/a	n/a	n/a	n/a	1	UoHDataOffsetStream
9.299935	0.004000	dropped_samples	9498.895364	Dropped 1 samples	n/a	n/a	n/a	n/a	n/a	n/a	1	UoHDataOffsetStream
9.343048	0.012000	dropped_samples	9498.938476	Dropped 3 samples	n/a	n/a	n/a	n/a	n/a	n/a	3	UoHDataOffsetStream
9.631144	0.004000	dropped_samples	9499.226572	Dropped 1 samples	n/a	n/a	n/a	n/a	n/a	n/a	1	UoHDataOffsetStream
11.863499	0.008000	dropped_samples	9501.458927	Dropped 2 samples	n/a	n/a	n/a	n/a	n/a	n/a	2	UoHDataOffsetStream
14.289454	0.004000	dropped_samples	9503.884882	Dropped 1 samples	n/a	n/a	n/a	n/a	n/a	n/a	1	UoHDataOffsetStream
15.295229	0.004000	dropped_samples	9504.890657	Dropped 1 samples	n/a	n/a	n/a	n/a	n/a	n/a	1	UoHDataOffsetStream
19.352855	0.004000	dropped_samples	9508.948283	Dropped 1 samples	n/a	n/a	n/a	n/a	n/a	n/a	1	UoHDataOffsetStream
20.392637	0.004000	dropped_samples	9509.988065	Dropped 1 samples	n/a	n/a	n/a	n/a	n/a	n/a	1	UoHDataOffsetStream
21.393847	0.004000	dropped_samples	9510.989276	Dropped 1 samples	n/a	n/a	n/a	n/a	n/a	n/a	1	UoHDataOffsetStream
22.399716	0.004000	dropped_samples	9511.995144	Dropped 1 samples	n/a	n/a	n/a	n/a	n/a	n/a	1	UoHDataOffsetStream
24.440731	0.004000	dropped_samples	9514.036159	Dropped 1 samples	n/a	n/a	n/a	n/a	n/a	n/a	1	UoHDataOffsetStream
27.609708	0.012000	dropped_samples	9517.205136	Dropped 3 samples	n/a	n/a	n/a	n/a	n/a	n/a	3	UoHDataOffsetStream
31.660027	0.000000	started_tutorial_n_back	9521.255455	Started tutorial n-back	n/a	n/a	n/a	n/a	n/a	true	n/a	n-backMarkers
32.502276	0.004000	dropped_samples	9522.097704	Dropped 1 samples	n/a	n/a	n/a	n/a	n/a	n/a	1	UoHDataOffsetStream
33.561856	0.004000	dropped_samples	9523.157284	Dropped 1 samples	n/a	n/a	n/a	n/a	n/a	n/a	1	UoHDataOffsetStream
33.967135	0.004000	dropped_samples	9523.562563	Dropped 1 samples	n/a	n/a	n/a	n/a	n/a	n/a	1	UoHDataOffsetStream
34.567709	0.004000	dropped_samples	9524.163137	Dropped 1 samples	n/a	n/a	n/a	n/a	n/a	n/a	1	UoHDataOffsetStream
37.590213	0.004000	dropped_samples	9527.185641	Dropped 1 samples	n/a	n/a	n/a	n/a	n/a	n/a	1	UoHDataOffsetStream
40.807974	0.004000	dropped_samples	9530.403402	Dropped 1 samples	n/a	n/a	n/a	n/a	n/a	n/a	1	UoHDataOffsetStream
41.647829	0.004000	dropped_samples	9531.243257	Dropped 1 samples	n/a	n/a	n/a	n/a	n/a	n/a	1	UoHDataOffsetStream
42.658568	0.004000	dropped_samples	9532.253996	Dropped 1 samples	n/a	n/a	n/a	n/a	n/a	n/a	1	UoHDataOffsetStream
44.382177	0.004000	dropped_samples	9533.977605	Dropped 1 samples	n/a	n/a	n/a	n/a	n/a	n/a	1	UoHDataOffsetStream
47.023829	0.004000	dropped_samples	9536.619258	Dropped 1 samples	n/a	n/a	n/a	n/a	n/a	n/a	1	UoHDataOffsetStream
47.722012	0.004000	dropped_samples	9537.317441	Dropped 1 samples	n/a	n/a	n/a	n/a	n/a	n/a	1	UoHDataOffsetStream
51.750360	0.004000	dropped_samples	9541.345788	Dropped 1 samples	n/a	n/a	n/a	n/a	n/a	n/a	1	UoHDataOffsetStream
60.754313	0.004000	dropped_samples	9550.349741	Dropped 1 samples	n/a	n/a	n/a	n/a	n/a	n/a	1	UoHDataOffsetStream
60.847077	0.004000	dropped_samples	9550.442505	Dropped 1 samples	n/a	n/a	n/a	n/a	n/a	n/a	1	UoHDataOffsetStream
61.086484	0.004000	dropped_samples	9550.681913	Dropped 1 samples	n/a	n/a	n/a	n/a	n/a	n/a	1	UoHDataOffsetStream
64.377364	0.004000	dropped_samples	9553.972792	Dropped 1 samples	n/a	n/a	n/a	n/a	n/a	n/a	1	UoHDataOffsetStream
65.432054	0.004000	dropped_samples	9555.027483	Dropped 1 samples	n/a	n/a	n/a	n/a	n/a	n/a	1	UoHDataOffsetStream
70.930176	0.004000	dropped_samples	9560.525604	Dropped 1 samples	n/a	n/a	n/a	n/a	n/a	n/a	1	UoHDataOffsetStream
74.982850	0.004000	dropped_samples	9564.578278	Dropped 1 samples	n/a	n/a	n/a	n/a	n/a	n/a	1	UoHDataOffsetStream
76.638113	0.004000	dropped_samples	9566.233542	Dropped 1 samples	n/a	n/a	n/a	n/a	n/a	n/a	1	UoHDataOffsetStream
79.518983	0.004000	dropped_samples	9569.114411	Dropped 1 samples	n/a	n/a	n/a	n/a	n/a	n/a	1	UoHDataOffsetStream
79.758213	0.004000	dropped_samples	9569.353642	Dropped 1 samples	n/a	n/a	n/a	n/a	n/a	n/a	1	UoHDataOffsetStream
82.424285	0.004000	dropped_samples	9572.019713	Dropped 1 samples	n/a	n/a	n/a	n/a	n/a	n/a	1	UoHDataOffsetStream
88.137120	0.004000	dropped_samples	9577.732548	Dropped 1 samples	n/a	n/a	n/a	n/a	n/a	n/a	1	UoHDataOffsetStream
89.143073	0.004000	dropped_samples	9578.738502	Dropped 1 samples	n/a	n/a	n/a	n/a	n/a	n/a	1	UoHDataOffsetStream
89.982894	0.004000	dropped_samples	9579.578322	Dropped 1 samples	n/a	n/a	n/a	n/a	n/a	n/a	1	UoHDataOffsetStream
90.466267	0.004000	dropped_samples	9580.061695	Dropped 1 samples	n/a	n/a	n/a	n/a	n/a	n/a	1	UoHDataOffsetStream
91.306126	0.004000	dropped_samples	9580.901555	Dropped 1 samples	n/a	n/a	n/a	n/a	n/a	n/a	1	UoHDataOffsetStream
92.194794	0.004000	dropped_samples	9581.790223	Dropped 1 samples	n/a	n/a	n/a	n/a	n/a	n/a	1	UoHDataOffsetStream
93.151844	0.004000	dropped_samples	9582.747273	Dropped 1 samples	n/a	n/a	n/a	n/a	n/a	n/a	1	UoHDataOffsetStream
93.322728	0.004000	dropped_samples	9582.918157	Dropped 1 samples	n/a	n/a	n/a	n/a	n/a	n/a	1	UoHDataOffsetStream
93.942830	0.004000	dropped_samples	9583.538258	Dropped 1 samples	n/a	n/a	n/a	n/a	n/a	n/a	1	UoHDataOffsetStream
95.529792	0.004000	dropped_samples	9585.125220	Dropped 1 samples	n/a	n/a	n/a	n/a	n/a	n/a	1	UoHDataOffsetStream
98.651221	0.000000	1-back	9588.246650	Steps:1 KeyPress:False Matched:False	1	1	false	false	Correct	true	n/a	n-backMarkers
99.011171	0.004000	dropped_samples	9588.606599	Dropped 1 samples	n/a	n/a	n/a	n/a	n/a	n/a	1	UoHDataOffsetStream
100.351900	0.000000	1-back	9589.947329	Steps:1 KeyPress:True Matched:False	0	1	true	false	Wrong	true	n/a	n-backMarkers
102.053385	0.000000	1-back	9591.648813	Steps:1 KeyPress:False Matched:False	1	1	false	false	Correct	true	n/a	n-backMarkers
103.234883	0.004000	dropped_samples	9592.830311	Dropped 1 samples	n/a	n/a	n/a	n/a	n/a	n/a	1	UoHDataOffsetStream
103.303228	0.004000	dropped_samples	9592.898657	Dropped 1 samples	n/a	n/a	n/a	n/a	n/a	n/a	1	UoHDataOffsetStream
103.755017	0.000000	1-back	9593.350445	Steps:1 KeyPress:True Matched:False	0	1	true	false	Wrong	true	n/a	n-backMarkers
105.455294	0.000000	1-back	9595.050722	Steps:1 KeyPress:False Matched:False	1	1	false	false	Correct	true	n/a	n-backMarkers
107.156705	0.000000	1-back	9596.752133	Steps:1 KeyPress:True Matched:False	0	1	true	false	Wrong	true	n/a	n-backMarkers
107.336446	0.004000	dropped_samples	9596.931874	Dropped 1 samples	n/a	n/a	n/a	n/a	n/a	n/a	1	UoHDataOffsetStream
108.127467	0.004000	dropped_samples	9597.722895	Dropped 1 samples	n/a	n/a	n/a	n/a	n/a	n/a	1	UoHDataOffsetStream
108.225088	0.004000	dropped_samples	9597.820517	Dropped 1 samples	n/a	n/a	n/a	n/a	n/a	n/a	1	UoHDataOffsetStream
108.347175	0.004000	dropped_samples	9597.942603	Dropped 1 samples	n/a	n/a	n/a	n/a	n/a	n/a	1	UoHDataOffsetStream
108.857699	0.000000	1-back	9598.453128	Steps:1 KeyPress:False Matched:True	0	1	false	true	Wrong	true	n/a	n-backMarkers
109.353007	0.004000	dropped_samples	9598.948435	Dropped 1 samples	n/a	n/a	n/a	n/a	n/a	n/a	1	UoHDataOffsetStream
110.217288	0.004000	dropped_samples	9599.812717	Dropped 1 samples	n/a	n/a	n/a	n/a	n/a	n/a	1	UoHDataOffsetStream
110.558284	0.000000	1-back	9600.153712	Steps:1 KeyPress:False Matched:True	0	1	false	true	Wrong	true	n/a	n-backMarkers
111.247589	0.004000	dropped_samples	9600.843018	Dropped 1 samples	n/a	n/a	n/a	n/a	n/a	n/a	1	UoHDataOffsetStream
112.260347	0.000000	1-back	9601.855775	Steps:1 KeyPress:False Matched:False	1	1	false	false	Correct	true	n/a	n-backMarkers
113.410768	0.004000	dropped_samples	9603.006196	Dropped 1 samples	n/a	n/a	n/a	n/a	n/a	n/a	1	UoHDataOffsetStream
113.960297	0.000000	1-back	9603.555725	Steps:1 KeyPress:False Matched:False	1	1	false	false	Correct	true	n/a	n-backMarkers
114.250463	0.004000	dropped_samples	9603.845891	Dropped 1 samples	n/a	n/a	n/a	n/a	n/a	n/a	1	UoHDataOffsetStream
115.661451	0.000000	1-back	9605.256879	Steps:1 KeyPress:False Matched:False	1	1	false	false	Correct	true	n/a	n-backMarkers
117.362054	0.000000	1-back	9606.957483	Steps:1 KeyPress:False Matched:False	1	1	false	false	Correct	true	n/a	n-backMarkers
118.259313	0.004000	dropped_samples	9607.854742	Dropped 1 samples	n/a	n/a	n/a	n/a	n/a	n/a	1	UoHDataOffsetStream
119.063243	0.000000	1-back	9608.658672	Steps:1 KeyPress:True Matched:False	0	1	true	false	Wrong	true	n/a	n-backMarkers
120.765638	0.000000	1-back	9610.361066	Steps:1 KeyPress:False Matched:False	1	1	false	false	Correct	true	n/a	n-backMarkers
121.018111	0.004000	dropped_samples	9610.613540	Dropped 1 samples	n/a	n/a	n/a	n/a	n/a	n/a	1	UoHDataOffsetStream
121.398990	0.004000	dropped_samples	9610.994418	Dropped 1 samples	n/a	n/a	n/a	n/a	n/a	n/a	1	UoHDataOffsetStream
122.466001	0.000000	1-back	9612.061429	Steps:1 KeyPress:True Matched:False	0	1	true	false	Wrong	true	n/a	n-backMarkers
123.298435	0.004000	dropped_samples	9612.893863	Dropped 1 samples	n/a	n/a	n/a	n/a	n/a	n/a	1	UoHDataOffsetStream
124.166195	0.000000	1-back	9613.761623	Steps:1 KeyPress:False Matched:False	1	1	false	false	Correct	true	n/a	n-backMarkers
125.867231	0.000000	1-back	9615.462659	Steps:1 KeyPress:True Matched:False	0	1	true	false	Wrong	true	n/a	n-backMarkers
125.935094	0.012000	dropped_samples	9615.530522	Dropped 3 samples	n/a	n/a	n/a	n/a	n/a	n/a	3	UoHDataOffsetStream
127.568192	0.000000	1-back	9617.163621	Steps:1 KeyPress:True Matched:True	1	1	true	true	Correct	true	n/a	n-backMarkers
128.938058	0.004000	dropped_samples	9618.533486	Dropped 1 samples	n/a	n/a	n/a	n/a	n/a	n/a	1	UoHDataOffsetStream
129.270354	0.000000	1-back	9618.865782	Steps:1 KeyPress:True Matched:True	1	1	true	true	Correct	true	n/a	n-backMarkers
129.392146	0.004000	dropped_samples	9618.987574	Dropped 1 samples	n/a	n/a	n/a	n/a	n/a	n/a	1	UoHDataOffsetStream
130.971908	0.000000	1-back	9620.567336	Steps:1 KeyPress:True Matched:True	1	1	true	true	Correct	true	n/a	n-backMarkers
131.071858	0.004000	dropped_samples	9620.667286	Dropped 1 samples	n/a	n/a	n/a	n/a	n/a	n/a	1	UoHDataOffsetStream
131.408775	0.004000	dropped_samples	9621.004203	Dropped 1 samples	n/a	n/a	n/a	n/a	n/a	n/a	1	UoHDataOffsetStream
131.530847	0.004000	dropped_samples	9621.126275	Dropped 1 samples	n/a	n/a	n/a	n/a	n/a	n/a	1	UoHDataOffsetStream
131.936174	0.004000	dropped_samples	9621.531602	Dropped 1 samples	n/a	n/a	n/a	n/a	n/a	n/a	1	UoHDataOffsetStream
132.673169	0.000000	1-back	9622.268597	Steps:1 KeyPress:False Matched:False	1	1	false	false	Correct	true	n/a	n-backMarkers
134.289607	0.004000	dropped_samples	9623.885036	Dropped 1 samples	n/a	n/a	n/a	n/a	n/a	n/a	1	UoHDataOffsetStream
137.986254	0.004000	dropped_samples	9627.581682	Dropped 1 samples	n/a	n/a	n/a	n/a	n/a	n/a	1	UoHDataOffsetStream
138.513467	0.004000	dropped_samples	9628.108895	Dropped 1 samples	n/a	n/a	n/a	n/a	n/a	n/a	1	UoHDataOffsetStream
139.353100	0.008000	dropped_samples	9628.948528	Dropped 2 samples	n/a	n/a	n/a	n/a	n/a	n/a	2	UoHDataOffsetStream
139.616772	0.004000	dropped_samples	9629.212200	Dropped 1 samples	n/a	n/a	n/a	n/a	n/a	n/a	1	UoHDataOffsetStream
140.168550	0.004000	dropped_samples	9629.763978	Dropped 1 samples	n/a	n/a	n/a	n/a	n/a	n/a	1	UoHDataOffsetStream
141.377183	0.000000	2-back	9630.972611	Steps:2 KeyPress:False Matched:False	1	2	false	false	Correct	true	n/a	n-backMarkers
141.608962	0.004000	dropped_samples	9631.204390	Dropped 1 samples	n/a	n/a	n/a	n/a	n/a	n/a	1	UoHDataOffsetStream
143.078202	0.000000	2-back	9632.673630	Steps:2 KeyPress:False Matched:False	1	2	false	false	Correct	true	n/a	n-backMarkers
143.674414	0.004000	dropped_samples	9633.269842	Dropped 1 samples	n/a	n/a	n/a	n/a	n/a	n/a	1	UoHDataOffsetStream
143.913657	0.012000	dropped_samples	9633.509086	Dropped 3 samples	n/a	n/a	n/a	n/a	n/a	n/a	3	UoHDataOffsetStream
144.274976	0.004000	dropped_samples	9633.870404	Dropped 1 samples	n/a	n/a	n/a	n/a	n/a	n/a	1	UoHDataOffsetStream
144.780003	0.000000	2-back	9634.375432	Steps:2 KeyPress:False Matched:False	1	2	false	false	Correct	true	n/a	n-backMarkers
144.992783	0.012000	dropped_samples	9634.588211	Dropped 3 samples	n/a	n/a	n/a	n/a	n/a	n/a	3	UoHDataOffsetStream
146.481491	0.000000	2-back	9636.076919	Steps:2 KeyPress:False Matched:False	1	2	false	false	Correct	true	n/a	n-backMarkers
148.183227	0.000000	2-back	9637.778655	Steps:2 KeyPress:False Matched:False	1	2	false	false	Correct	true	n/a	n-backMarkers
148.640260	0.004000	dropped_samples	9638.235688	Dropped 1 samples	n/a	n/a	n/a	n/a	n/a	n/a	1	UoHDataOffsetStream
149.719351	0.004000	dropped_samples	9639.314780	Dropped 1 samples	n/a	n/a	n/a	n/a	n/a	n/a	1	UoHDataOffsetStream
149.884289	0.000000	2-back	9639.479717	Steps:2 KeyPress:True Matched:False	0	2	true	false	Wrong	true	n/a	n-backMarkers
150.271102	0.004000	dropped_samples	9639.866531	Dropped 1 samples	n/a	n/a	n/a	n/a	n/a	n/a	1	UoHDataOffsetStream
151.018205	0.020000	dropped_samples	9640.613633	Dropped 5 samples	n/a	n/a	n/a	n/a	n/a	n/a	5	UoHDataOffsetStream
151.585874	0.000000	2-back	9641.181302	Steps:2 KeyPress:False Matched:False	1	2	false	false	Correct	true	n/a	n-backMarkers
153.288150	0.000000	2-back	9642.883578	Steps:2 KeyPress:True Matched:False	0	2	true	false	Wrong	true	n/a	n-backMarkers
154.304444	0.004000	dropped_samples	9643.899872	Dropped 1 samples	n/a	n/a	n/a	n/a	n/a	n/a	1	UoHDataOffsetStream
154.738906	0.004000	dropped_samples	9644.334335	Dropped 1 samples	n/a	n/a	n/a	n/a	n/a	n/a	1	UoHDataOffsetStream
154.989108	0.000000	2-back	9644.584536	Steps:2 KeyPress:False Matched:False	1	2	false	false	Correct	true	n/a	n-backMarkers
156.691196	0.000000	2-back	9646.286625	Steps:2 KeyPress:False Matched:False	1	2	false	false	Correct	true	n/a	n-backMarkers
158.392651	0.000000	2-back	9647.988079	Steps:2 KeyPress:True Matched:False	0	2	true	false	Wrong	true	n/a	n-backMarkers
160.094419	0.000000	2-back	9649.689847	Steps:2 KeyPress:False Matched:False	1	2	false	false	Correct	true	n/a	n-backMarkers
160.783865	0.016000	dropped_samples	9650.379293	Dropped 4 samples	n/a	n/a	n/a	n/a	n/a	n/a	4	UoHDataOffsetStream
161.796044	0.000000	2-back	9651.391473	Steps:2 KeyPress:False Matched:False	1	2	false	false	Correct	true	n/a	n-backMarkers
163.088502	0.004000	dropped_samples	9652.683931	Dropped 1 samples	n/a	n/a	n/a	n/a	n/a	n/a	1	UoHDataOffsetStream
163.496692	0.000000	2-back	9653.092120	Steps:2 KeyPress:True Matched:False	0	2	true	false	Wrong	true	n/a	n-backMarkers
163.615886	0.012000	dropped_samples	9653.211314	Dropped 3 samples	n/a	n/a	n/a	n/a	n/a	n/a	3	UoHDataOffsetStream
164.817057	0.004000	dropped_samples	9654.412485	Dropped 1 samples	n/a	n/a	n/a	n/a	n/a	n/a	1	UoHDataOffsetStream
165.129570	0.004000	dropped_samples	9654.724998	Dropped 1 samples	n/a	n/a	n/a	n/a	n/a	n/a	1	UoHDataOffsetStream
165.197119	0.000000	2-back	9654.792547	Steps:2 KeyPress:False Matched:False	1	2	false	false	Correct	true	n/a	n-backMarkers
165.827785	0.004000	dropped_samples	9655.423214	Dropped 1 samples	n/a	n/a	n/a	n/a	n/a	n/a	1	UoHDataOffsetStream
166.898151	0.000000	2-back	9656.493579	Steps:2 KeyPress:False Matched:False	1	2	false	false	Correct	true	n/a	n-backMarkers
168.599072	0.000000	2-back	9658.194500	Steps:2 KeyPress:True Matched:False	0	2	true	false	Wrong	true	n/a	n-backMarkers
168.850230	0.004000	dropped_samples	9658.445659	Dropped 1 samples	n/a	n/a	n/a	n/a	n/a	n/a	1	UoHDataOffsetStream
170.299853	0.000000	2-back	9659.895281	Steps:2 KeyPress:False Matched:True	0	2	false	true	Wrong	true	n/a	n-backMarkers
172.001239	0.000000	2-back	9661.596667	Steps:2 KeyPress:False Matched:False	1	2	false	false	Correct	true	n/a	n-backMarkers
173.703194	0.000000	2-back	9663.298622	Steps:2 KeyPress:False Matched:False	1	2	false	false	Correct	true	n/a	n-backMarkers
179.792661	0.004000	dropped_samples	9669.388089	Dropped 1 samples	n/a	n/a	n/a	n/a	n/a	n/a	1	UoHDataOffsetStream
181.784852	0.004000	dropped_samples	9671.380281	Dropped 1 samples	n/a	n/a	n/a	n/a	n/a	n/a	1	UoHDataOffsetStream
182.416091	0.000000	3-back	9672.011519	Steps:3 KeyPress:False Matched:False	1	3	false	false	Correct	true	n/a	n-backMarkers
184.065149	0.004000	dropped_samples	9673.660577	Dropped 1 samples	n/a	n/a	n/a	n/a	n/a	n/a	1	UoHDataOffsetStream
184.117258	0.000000	3-back	9673.712686	Steps:3 KeyPress:False Matched:False	1	3	false	false	Correct	true	n/a	n-backMarkers
185.818232	0.000000	3-back	9675.413660	Steps:3 KeyPress:False Matched:False	1	3	false	false	Correct	true	n/a	n-backMarkers
186.491887	0.028000	dropped_samples	9676.087315	Dropped 7 samples	n/a	n/a	n/a	n/a	n/a	n/a	7	UoHDataOffsetStream
187.519074	0.000000	3-back	9677.114503	Steps:3 KeyPress:False Matched:False	1	3	false	false	Correct	true	n/a	n-backMarkers
187.951859	0.012000	dropped_samples	9677.547287	Dropped 3 samples	n/a	n/a	n/a	n/a	n/a	n/a	3	UoHDataOffsetStream
189.220097	0.000000	3-back	9678.815525	Steps:3 KeyPress:True Matched:False	0	3	true	false	Wrong	true	n/a	n-backMarkers
189.563170	0.004000	dropped_samples	9679.158599	Dropped 1 samples	n/a	n/a	n/a	n/a	n/a	n/a	1	UoHDataOffsetStream
190.832781	0.024000	dropped_samples	9680.428209	Dropped 6 samples	n/a	n/a	n/a	n/a	n/a	n/a	6	UoHDataOffsetStream
190.921743	0.000000	3-back	9680.517171	Steps:3 KeyPress:False Matched:False	1	3	false	false	Correct	true	n/a	n-backMarkers
191.145225	0.004000	dropped_samples	9680.740654	Dropped 1 samples	n/a	n/a	n/a	n/a	n/a	n/a	1	UoHDataOffsetStream
192.248738	0.004000	dropped_samples	9681.844166	Dropped 1 samples	n/a	n/a	n/a	n/a	n/a	n/a	1	UoHDataOffsetStream
192.624130	0.000000	3-back	9682.219558	Steps:3 KeyPress:False Matched:False	1	3	false	false	Correct	true	n/a	n-backMarkers
193.904108	0.004000	dropped_samples	9683.499537	Dropped 1 samples	n/a	n/a	n/a	n/a	n/a	n/a	1	UoHDataOffsetStream
194.325936	0.000000	3-back	9683.921364	Steps:3 KeyPress:True Matched:False	0	3	true	false	Wrong	true	n/a	n-backMarkers
196.027066	0.000000	3-back	9685.622495	Steps:3 KeyPress:False Matched:False	1	3	false	false	Correct	true	n/a	n-backMarkers
197.728190	0.000000	3-back	9687.323618	Steps:3 KeyPress:False Matched:True	0	3	false	true	Wrong	true	n/a	n-backMarkers
199.426450	0.004000	dropped_samples	9689.021879	Dropped 1 samples	n/a	n/a	n/a	n/a	n/a	n/a	1	UoHDataOffsetStream
199.429405	0.000000	3-back	9689.024833	Steps:3 KeyPress:False Matched:False	1	3	false	false	Correct	true	n/a	n-backMarkers
200.266303	0.004000	dropped_samples	9689.861732	Dropped 1 samples	n/a	n/a	n/a	n/a	n/a	n/a	1	UoHDataOffsetStream
200.827791	0.012000	dropped_samples	9690.423220	Dropped 3 samples	n/a	n/a	n/a	n/a	n/a	n/a	3	UoHDataOffsetStream
200.866913	0.008000	dropped_samples	9690.462341	Dropped 2 samples	n/a	n/a	n/a	n/a	n/a	n/a	2	UoHDataOffsetStream
201.130351	0.000000	3-back	9690.725779	Steps:3 KeyPress:False Matched:False	1	3	false	false	Correct	true	n/a	n-backMarkers
202.832135	0.000000	3-back	9692.427564	Steps:3 KeyPress:True Matched:True	1	3	true	true	Correct	true	n/a	n-backMarkers
204.533271	0.000000	3-back	9694.128699	Steps:3 KeyPress:False Matched:False	1	3	false	false	Correct	true	n/a	n-backMarkers
206.236000	0.000000	3-back	9695.831428	Steps:3 KeyPress:False Matched:False	1	3	false	false	Correct	true	n/a	n-backMarkers
207.938016	0.000000	3-back	9697.533445	Steps:3 KeyPress:False Matched:False	1	3	false	false	Correct	true	n/a	n-backMarkers
209.289932	0.012000	dropped_samples	9698.885360	Dropped 3 samples	n/a	n/a	n/a	n/a	n/a	n/a	3	UoHDataOffsetStream
209.639197	0.000000	3-back	9699.234625	Steps:3 KeyPress:True Matched:False	0	3	true	false	Wrong	true	n/a	n-backMarkers
209.743899	0.004000	dropped_samples	9699.339328	Dropped 1 samples	n/a	n/a	n/a	n/a	n/a	n/a	1	UoHDataOffsetStream
210.320058	0.004000	dropped_samples	9699.915486	Dropped 1 samples	n/a	n/a	n/a	n/a	n/a	n/a	1	UoHDataOffsetStream
211.341031	0.000000	3-back	9700.936460	Steps:3 KeyPress:False Matched:True	0	3	false	true	Wrong	true	n/a	n-backMarkers
213.041244	0.000000	3-back	9702.636672	Steps:3 KeyPress:False Matched:False	1	3	false	false	Correct	true	n/a	n-backMarkers
213.323024	0.004000	dropped_samples	9702.918453	Dropped 1 samples	n/a	n/a	n/a	n/a	n/a	n/a	1	UoHDataOffsetStream
214.742063	0.000000	3-back	9704.337491	Steps:3 KeyPress:False Matched:False	1	3	false	false	Correct	true	n/a	n-backMarkers
215.315192	0.004000	dropped_samples	9704.910620	Dropped 1 samples	n/a	n/a	n/a	n/a	n/a	n/a	1	UoHDataOffsetStream
216.321026	0.004000	dropped_samples	9705.916454	Dropped 1 samples	n/a	n/a	n/a	n/a	n/a	n/a	1	UoHDataOffsetStream
217.331808	0.004000	dropped_samples	9706.927237	Dropped 1 samples	n/a	n/a	n/a	n/a	n/a	n/a	1	UoHDataOffsetStream
218.313349	0.012000	dropped_samples	9707.908778	Dropped 3 samples	n/a	n/a	n/a	n/a	n/a	n/a	3	UoHDataOffsetStream
219.348410	0.004000	dropped_samples	9708.943838	Dropped 1 samples	n/a	n/a	n/a	n/a	n/a	n/a	1	UoHDataOffsetStream
223.376754	0.004000	dropped_samples	9712.972182	Dropped 1 samples	n/a	n/a	n/a	n/a	n/a	n/a	1	UoHDataOffsetStream
223.431040	0.000000	4-back	9713.026469	Steps:4 KeyPress:False Matched:False	1	4	false	false	Correct	true	n/a	n-backMarkers
224.387490	0.004000	dropped_samples	9713.982918	Dropped 1 samples	n/a	n/a	n/a	n/a	n/a	n/a	1	UoHDataOffsetStream
224.817581	0.004000	dropped_samples	9714.413010	Dropped 1 samples	n/a	n/a	n/a	n/a	n/a	n/a	1	UoHDataOffsetStream
225.132020	0.000000	4-back	9714.727448	Steps:4 KeyPress:False Matched:True	0	4	false	true	Wrong	true	n/a	n-backMarkers
226.379675	0.004000	dropped_samples	9715.975103	Dropped 1 samples	n/a	n/a	n/a	n/a	n/a	n/a	1	UoHDataOffsetStream
226.833072	0.000000	4-back	9716.428500	Steps:4 KeyPress:False Matched:True	0	4	false	true	Wrong	true	n/a	n-backMarkers
228.534885	0.000000	4-back	9718.130313	Steps:4 KeyPress:False Matched:False	1	4	false	false	Correct	true	n/a	n-backMarkers
228.850359	0.012000	dropped_samples	9718.445787	Dropped 3 samples	n/a	n/a	n/a	n/a	n/a	n/a	3	UoHDataOffsetStream
229.978271	0.012000	dropped_samples	9719.573700	Dropped 3 samples	n/a	n/a	n/a	n/a	n/a	n/a	3	UoHDataOffsetStream
230.235199	0.000000	4-back	9719.830627	Steps:4 KeyPress:False Matched:False	1	4	false	false	Correct	true	n/a	n-backMarkers
231.936909	0.000000	4-back	9721.532337	Steps:4 KeyPress:False Matched:False	1	4	false	false	Correct	true	n/a	n-backMarkers
232.092578	0.004000	dropped_samples	9721.688007	Dropped 1 samples	n/a	n/a	n/a	n/a	n/a	n/a	1	UoHDataOffsetStream
232.400211	0.004000	dropped_samples	9721.995639	Dropped 1 samples	n/a	n/a	n/a	n/a	n/a	n/a	1	UoHDataOffsetStream
233.000776	0.004000	dropped_samples	9722.596204	Dropped 1 samples	n/a	n/a	n/a	n/a	n/a	n/a	1	UoHDataOffsetStream
233.637197	0.000000	4-back	9723.232625	Steps:4 KeyPress:True Matched:True	1	4	true	true	Correct	true	n/a	n-backMarkers
234.085056	0.012000	dropped_samples	9723.680485	Dropped 3 samples	n/a	n/a	n/a	n/a	n/a	n/a	3	UoHDataOffsetStream
235.339524	0.000000	4-back	9724.934952	Steps:4 KeyPress:False Matched:True	0	4	false	true	Wrong	true	n/a	n-backMarkers
236.433418	0.004000	dropped_samples	9726.028846	Dropped 1 samples	n/a	n/a	n/a	n/a	n/a	n/a	1	UoHDataOffsetStream
237.041222	0.000000	4-back	9726.636650	Steps:4 KeyPress:False Matched:False	1	4	false	false	Correct	true	n/a	n-backMarkers
237.995921	0.008000	dropped_samples	9727.591349	Dropped 2 samples	n/a	n/a	n/a	n/a	n/a	n/a	2	UoHDataOffsetStream
238.210768	0.012000	dropped_samples	9727.806196	Dropped 3 samples	n/a	n/a	n/a	n/a	n/a	n/a	3	UoHDataOffsetStream
238.550796	0.004000	dropped_samples	9728.146224	Dropped 1 samples	n/a	n/a	n/a	n/a	n/a	n/a	1	UoHDataOffsetStream
238.596503	0.012000	dropped_samples	9728.191931	Dropped 3 samples	n/a	n/a	n/a	n/a	n/a	n/a	3	UoHDataOffsetStream
238.741852	0.000000	4-back	9728.337281	Steps:4 KeyPress:False Matched:False	1	4	false	false	Correct	true	n/a	n-backMarkers
240.443064	0.000000	4-back	9730.038492	Steps:4 KeyPress:False Matched:False	1	4	false	false	Correct	true	n/a	n-backMarkers
242.143715	0.000000	4-back	9731.739143	Steps:4 KeyPress:False Matched:True	0	4	false	true	Wrong	true	n/a	n-backMarkers
242.507653	0.004000	dropped_samples	9732.103081	Dropped 1 samples	n/a	n/a	n/a	n/a	n/a	n/a	1	UoHDataOffsetStream
243.844286	0.000000	4-back	9733.439715	Steps:4 KeyPress:False Matched:True	0	4	false	true	Wrong	true	n/a	n-backMarkers
244.524253	0.004000	dropped_samples	9734.119681	Dropped 1 samples	n/a	n/a	n/a	n/a	n/a	n/a	1	UoHDataOffsetStream
245.530123	0.004000	dropped_samples	9735.125552	Dropped 1 samples	n/a	n/a	n/a	n/a	n/a	n/a	1	UoHDataOffsetStream
245.544987	0.000000	4-back	9735.140415	Steps:4 KeyPress:False Matched:False	1	4	false	false	Correct	true	n/a	n-backMarkers
247.234215	0.004000	dropped_samples	9736.829644	Dropped 1 samples	n/a	n/a	n/a	n/a	n/a	n/a	1	UoHDataOffsetStream
247.246249	0.000000	4-back	9736.841677	Steps:4 KeyPress:False Matched:False	1	4	false	false	Correct	true	n/a	n-backMarkers
248.552600	0.004000	dropped_samples	9738.148028	Dropped 1 samples	n/a	n/a	n/a	n/a	n/a	n/a	1	UoHDataOffsetStream
248.949165	0.000000	4-back	9738.544594	Steps:4 KeyPress:False Matched:False	1	4	false	false	Correct	true	n/a	n-backMarkers
250.650061	0.000000	4-back	9740.245489	Steps:4 KeyPress:False Matched:True	0	4	false	true	Wrong	true	n/a	n-backMarkers
252.351221	0.000000	4-back	9741.946649	Steps:4 KeyPress:True Matched:False	0	4	true	false	Wrong	true	n/a	n-backMarkers
254.052131	0.000000	4-back	9743.647559	Steps:4 KeyPress:False Matched:True	0	4	false	true	Wrong	true	n/a	n-backMarkers
254.436392	0.012000	dropped_samples	9744.031820	Dropped 3 samples	n/a	n/a	n/a	n/a	n/a	n/a	3	UoHDataOffsetStream
254.626807	0.004000	dropped_samples	9744.222235	Dropped 1 samples	n/a	n/a	n/a	n/a	n/a	n/a	1	UoHDataOffsetStream
255.753106	0.000000	4-back	9745.348534	Steps:4 KeyPress:False Matched:False	1	4	false	false	Correct	true	n/a	n-backMarkers
256.459251	0.000000	finished_tutorial_n_back	9746.054680	Finished tutorial n-back	n/a	n/a	n/a	n/a	n/a	true	n/a	n-backMarkers
256.643437	0.004000	dropped_samples	9746.238865	Dropped 1 samples	n/a	n/a	n/a	n/a	n/a	n/a	1	UoHDataOffsetStream
257.649278	0.004000	dropped_samples	9747.244706	Dropped 1 samples	n/a	n/a	n/a	n/a	n/a	n/a	1	UoHDataOffsetStream
259.353374	0.012000	dropped_samples	9748.948803	Dropped 3 samples	n/a	n/a	n/a	n/a	n/a	n/a	3	UoHDataOffsetStream
260.652218	0.004000	dropped_samples	9750.247646	Dropped 1 samples	n/a	n/a	n/a	n/a	n/a	n/a	1	UoHDataOffsetStream
264.900272	0.012000	dropped_samples	9754.495701	Dropped 3 samples	n/a	n/a	n/a	n/a	n/a	n/a	3	UoHDataOffsetStream
265.305558	0.012000	dropped_samples	9754.900986	Dropped 3 samples	n/a	n/a	n/a	n/a	n/a	n/a	3	UoHDataOffsetStream
266.308289	0.000000	started_n_back	9755.903717	Started n-back	n/a	n/a	n/a	n/a	n/a	false	n/a	n-backMarkers
271.043050	0.012000	dropped_samples	9760.638478	Dropped 3 samples	n/a	n/a	n/a	n/a	n/a	n/a	3	UoHDataOffsetStream
272.673713	0.004000	dropped_samples	9762.269141	Dropped 1 samples	n/a	n/a	n/a	n/a	n/a	n/a	1	UoHDataOffsetStream
274.309941	0.000000	1-back	9763.905369	Steps:1 KeyPress:False Matched:False	1	1	false	false	Correct	false	n/a	n-backMarkers
275.437402	0.004000	dropped_samples	9765.032831	Dropped 1 samples	n/a	n/a	n/a	n/a	n/a	n/a	1	UoHDataOffsetStream
276.010615	0.000000	1-back	9765.606043	Steps:1 KeyPress:False Matched:False	1	1	false	false	Correct	false	n/a	n-backMarkers
277.252994	0.012000	dropped_samples	9766.848423	Dropped 3 samples	n/a	n/a	n/a	n/a	n/a	n/a	3	UoHDataOffsetStream
277.283111	0.012000	dropped_samples	9766.878539	Dropped 3 samples	n/a	n/a	n/a	n/a	n/a	n/a	3	UoHDataOffsetStream
277.711908	0.000000	1-back	9767.307336	Steps:1 KeyPress:False Matched:False	1	1	false	false	Correct	false	n/a	n-backMarkers
279.413551	0.000000	1-back	9769.008980	Steps:1 KeyPress:True Matched:False	0	1	true	false	Wrong	false	n/a	n-backMarkers
281.113959	0.000000	1-back	9770.709388	Steps:1 KeyPress:False Matched:True	0	1	false	true	Wrong	false	n/a	n-backMarkers
281.721598	0.004000	dropped_samples	9771.317027	Dropped 1 samples	n/a	n/a	n/a	n/a	n/a	n/a	1	UoHDataOffsetStream
282.814790	0.000000	1-back	9772.410219	Steps:1 KeyPress:False Matched:True	0	1	false	true	Wrong	false	n/a	n-backMarkers
284.241117	0.004000	dropped_samples	9773.836546	Dropped 1 samples	n/a	n/a	n/a	n/a	n/a	n/a	1	UoHDataOffsetStream
284.516808	0.000000	1-back	9774.112236	Steps:1 KeyPress:False Matched:False	1	1	false	false	Correct	false	n/a	n-backMarkers
285.178685	0.004000	dropped_samples	9774.774113	Dropped 1 samples	n/a	n/a	n/a	n/a	n/a	n/a	1	UoHDataOffsetStream
286.216972	0.000000	1-back	9775.812400	Steps:1 KeyPress:False Matched:False	1	1	false	false	Correct	false	n/a	n-backMarkers
286.741155	0.004000	dropped_samples	9776.336583	Dropped 1 samples	n/a	n/a	n/a	n/a	n/a	n/a	1	UoHDataOffsetStream
287.336810	0.004000	dropped_samples	9776.932239	Dropped 1 samples	n/a	n/a	n/a	n/a	n/a	n/a	1	UoHDataOffsetStream
287.916765	0.000000	1-back	9777.512193	Steps:1 KeyPress:False Matched:False	1	1	false	false	Correct	false	n/a	n-backMarkers
289.618594	0.000000	1-back	9779.214022	Steps:1 KeyPress:True Matched:False	0	1	true	false	Wrong	false	n/a	n-backMarkers
291.320054	0.000000	1-back	9780.915482	Steps:1 KeyPress:False Matched:False	1	1	false	false	Correct	false	n/a	n-backMarkers
291.780224	0.004000	dropped_samples	9781.375652	Dropped 1 samples	n/a	n/a	n/a	n/a	n/a	n/a	1	UoHDataOffsetStream
291.853467	0.004000	dropped_samples	9781.448896	Dropped 1 samples	n/a	n/a	n/a	n/a	n/a	n/a	1	UoHDataOffsetStream
292.810719	0.004000	dropped_samples	9782.406147	Dropped 1 samples	n/a	n/a	n/a	n/a	n/a	n/a	1	UoHDataOffsetStream
293.020779	0.000000	1-back	9782.616207	Steps:1 KeyPress:True Matched:False	0	1	true	false	Wrong	false	n/a	n-backMarkers
294.721860	0.000000	1-back	9784.317288	Steps:1 KeyPress:False Matched:False	1	1	false	false	Correct	false	n/a	n-backMarkers
296.423308	0.000000	1-back	9786.018737	Steps:1 KeyPress:True Matched:False	0	1	true	false	Wrong	false	n/a	n-backMarkers
297.634763	0.004000	dropped_samples	9787.230192	Dropped 1 samples	n/a	n/a	n/a	n/a	n/a	n/a	1	UoHDataOffsetStream
298.123650	0.000000	1-back	9787.719078	Steps:1 KeyPress:False Matched:True	0	1	false	true	Wrong	false	n/a	n-backMarkers
298.259936	0.004000	dropped_samples	9787.855364	Dropped 1 samples	n/a	n/a	n/a	n/a	n/a	n/a	1	UoHDataOffsetStream
299.817345	0.004000	dropped_samples	9789.412773	Dropped 1 samples	n/a	n/a	n/a	n/a	n/a	n/a	1	UoHDataOffsetStream
299.824648	0.000000	1-back	9789.420077	Steps:1 KeyPress:False Matched:True	0	1	false	true	Wrong	false	n/a	n-backMarkers
301.331006	0.008000	dropped_samples	9790.926434	Dropped 2 samples	n/a	n/a	n/a	n/a	n/a	n/a	2	UoHDataOffsetStream
301.524710	0.000000	1-back	9791.120138	Steps:1 KeyPress:False Matched:False	1	1	false	false	Correct	false	n/a	n-backMarkers
303.226122	0.000000	1-back	9792.821551	Steps:1 KeyPress:False Matched:False	1	1	false	false	Correct	false	n/a	n-backMarkers
303.899368	0.004000	dropped_samples	9793.494796	Dropped 1 samples	n/a	n/a	n/a	n/a	n/a	n/a	1	UoHDataOffsetStream
303.997053	0.004000	dropped_samples	9793.592481	Dropped 1 samples	n/a	n/a	n/a	n/a	n/a	n/a	1	UoHDataOffsetStream
304.065664	0.004000	dropped_samples	9793.661092	Dropped 1 samples	n/a	n/a	n/a	n/a	n/a	n/a	1	UoHDataOffsetStream
304.548781	0.012000	dropped_samples	9794.144209	Dropped 3 samples	n/a	n/a	n/a	n/a	n/a	n/a	3	UoHDataOffsetStream
304.836932	0.012000	dropped_samples	9794.432360	Dropped 3 samples	n/a	n/a	n/a	n/a	n/a	n/a	3	UoHDataOffsetStream
304.926725	0.000000	1-back	9794.522153	Steps:1 KeyPress:False Matched:False	1	1	false	false	Correct	false	n/a	n-backMarkers
305.242178	0.012000	dropped_samples	9794.837607	Dropped 3 samples	n/a	n/a	n/a	n/a	n/a	n/a	3	UoHDataOffsetStream
306.629010	0.000000	1-back	9796.224438	Steps:1 KeyPress:True Matched:False	0	1	true	false	Wrong	false	n/a	n-backMarkers
307.092779	0.012000	dropped_samples	9796.688207	Dropped 3 samples	n/a	n/a	n/a	n/a	n/a	n/a	3	UoHDataOffsetStream
308.245095	0.012000	dropped_samples	9797.840523	Dropped 3 samples	n/a	n/a	n/a	n/a	n/a	n/a	3	UoHDataOffsetStream
308.329615	0.000000	1-back	9797.925043	Steps:1 KeyPress:False Matched:True	0	1	false	true	Wrong	false	n/a	n-backMarkers
309.011700	0.008000	dropped_samples	9798.607128	Dropped 2 samples	n/a	n/a	n/a	n/a	n/a	n/a	2	UoHDataOffsetStream
309.324212	0.008000	dropped_samples	9798.919640	Dropped 2 samples	n/a	n/a	n/a	n/a	n/a	n/a	2	UoHDataOffsetStream
310.030560	0.000000	1-back	9799.625988	Steps:1 KeyPress:False Matched:False	1	1	false	false	Correct	false	n/a	n-backMarkers
310.882049	0.004000	dropped_samples	9800.477477	Dropped 1 samples	n/a	n/a	n/a	n/a	n/a	n/a	1	UoHDataOffsetStream
311.101561	0.004000	dropped_samples	9800.696989	Dropped 1 samples	n/a	n/a	n/a	n/a	n/a	n/a	1	UoHDataOffsetStream
311.653286	0.004000	dropped_samples	9801.248714	Dropped 1 samples	n/a	n/a	n/a	n/a	n/a	n/a	1	UoHDataOffsetStream
311.730705	0.000000	1-back	9801.326133	Steps:1 KeyPress:True Matched:False	0	1	true	false	Wrong	false	n/a	n-backMarkers
313.432945	0.000000	1-back	9803.028374	Steps:1 KeyPress:False Matched:True	0	1	false	true	Wrong	false	n/a	n-backMarkers
315.132813	0.000000	1-back	9804.728241	Steps:1 KeyPress:False Matched:False	1	1	false	false	Correct	false	n/a	n-backMarkers
316.833510	0.000000	1-back	9806.428939	Steps:1 KeyPress:True Matched:False	0	1	true	false	Wrong	false	n/a	n-backMarkers
317.029303	0.004000	dropped_samples	9806.624732	Dropped 1 samples	n/a	n/a	n/a	n/a	n/a	n/a	1	UoHDataOffsetStream
317.341807	0.004000	dropped_samples	9806.937236	Dropped 1 samples	n/a	n/a	n/a	n/a	n/a	n/a	1	UoHDataOffsetStream
318.534665	0.000000	1-back	9808.130093	Steps:1 KeyPress:False Matched:False	1	1	false	false	Correct	false	n/a	n-backMarkers
320.076208	0.004000	dropped_samples	9809.671636	Dropped 1 samples	n/a	n/a	n/a	n/a	n/a	n/a	1	UoHDataOffsetStream
320.236593	0.000000	1-back	9809.832022	Steps:1 KeyPress:True Matched:False	0	1	true	false	Wrong	false	n/a	n-backMarkers
321.541029	0.004000	dropped_samples	9811.136457	Dropped 1 samples	n/a	n/a	n/a	n/a	n/a	n/a	1	UoHDataOffsetStream
321.780472	0.012000	dropped_samples	9811.375900	Dropped 3 samples	n/a	n/a	n/a	n/a	n/a	n/a	3	UoHDataOffsetStream
321.937719	0.000000	1-back	9811.533148	Steps:1 KeyPress:False Matched:True	0	1	false	true	Wrong	false	n/a	n-backMarkers
323.638573	0.000000	1-back	9813.234001	Steps:1 KeyPress:False Matched:False	1	1	false	false	Correct	false	n/a	n-backMarkers
325.339413	0.000000	1-back	9814.934841	Steps:1 KeyPress:True Matched:False	0	1	true	false	Wrong	false	n/a	n-backMarkers
327.040578	0.000000	1-back	9816.636006	Steps:1 KeyPress:False Matched:False	1	1	false	false	Correct	false	n/a	n-backMarkers
327.533126	0.012000	dropped_samples	9817.128554	Dropped 3 samples	n/a	n/a	n/a	n/a	n/a	n/a	3	UoHDataOffsetStream
327.561544	0.012000	dropped_samples	9817.156972	Dropped 3 samples	n/a	n/a	n/a	n/a	n/a	n/a	3	UoHDataOffsetStream
327.874058	0.012000	dropped_samples	9817.469486	Dropped 3 samples	n/a	n/a	n/a	n/a	n/a	n/a	3	UoHDataOffsetStream
328.235448	0.004000	dropped_samples	9817.830877	Dropped 1 samples	n/a	n/a	n/a	n/a	n/a	n/a	1	UoHDataOffsetStream
328.474649	0.004000	dropped_samples	9818.070077	Dropped 1 samples	n/a	n/a	n/a	n/a	n/a	n/a	1	UoHDataOffsetStream
328.740712	0.000000	1-back	9818.336140	Steps:1 KeyPress:True Matched:False	0	1	true	false	Wrong	false	n/a	n-backMarkers
329.172854	0.004000	dropped_samples	9818.768282	Dropped 1 samples	n/a	n/a	n/a	n/a	n/a	n/a	1	UoHDataOffsetStream
329.241216	0.004000	dropped_samples	9818.836644	Dropped 1 samples	n/a	n/a	n/a	n/a	n/a	n/a	1	UoHDataOffsetStream
330.441616	0.000000	1-back	9820.037044	Steps:1 KeyPress:False Matched:False	1	1	false	false	Correct	false	n/a	n-backMarkers
332.143668	0.000000	1-back	9821.739096	Steps:1 KeyPress:True Matched:False	0	1	true	false	Wrong	false	n/a	n-backMarkers
333.225715	0.004000	dropped_samples	9822.821144	Dropped 1 samples	n/a	n/a	n/a	n/a	n/a	n/a	1	UoHDataOffsetStream
333.538125	0.004000	dropped_samples	9823.133553	Dropped 1 samples	n/a	n/a	n/a	n/a	n/a	n/a	1	UoHDataOffsetStream
333.844929	0.000000	1-back	9823.440358	Steps:1 KeyPress:False Matched:True	0	1	false	true	Wrong	false	n/a	n-backMarkers
335.546518	0.000000	1-back	9825.141946	Steps:1 KeyPress:False Matched:True	0	1	false	true	Wrong	false	n/a	n-backMarkers
336.277390	0.004000	dropped_samples	9825.872818	Dropped 1 samples	n/a	n/a	n/a	n/a	n/a	n/a	1	UoHDataOffsetStream
337.247557	0.000000	1-back	9826.842986	Steps:1 KeyPress:False Matched:False	1	1	false	false	Correct	false	n/a	n-backMarkers
337.258987	0.004000	dropped_samples	9826.854415	Dropped 1 samples	n/a	n/a	n/a	n/a	n/a	n/a	1	UoHDataOffsetStream
338.269570	0.004000	dropped_samples	9827.864999	Dropped 1 samples	n/a	n/a	n/a	n/a	n/a	n/a	1	UoHDataOffsetStream
338.948620	0.000000	1-back	9828.544048	Steps:1 KeyPress:False Matched:False	1	1	false	false	Correct	false	n/a	n-backMarkers
340.649439	0.000000	1-back	9830.244867	Steps:1 KeyPress:True Matched:False	0	1	true	false	Wrong	false	n/a	n-backMarkers
342.346751	0.004000	dropped_samples	9831.942180	Dropped 1 samples	n/a	n/a	n/a	n/a	n/a	n/a	1	UoHDataOffsetStream
342.350431	0.000000	1-back	9831.945859	Steps:1 KeyPress:False Matched:False	1	1	false	false	Correct	false	n/a	n-backMarkers
344.050695	0.000000	1-back	9833.646123	Steps:1 KeyPress:True Matched:False	0	1	true	false	Wrong	false	n/a	n-backMarkers
345.466836	0.016000	dropped_samples	9835.062264	Dropped 4 samples	n/a	n/a	n/a	n/a	n/a	n/a	4	UoHDataOffsetStream
345.751758	0.000000	1-back	9835.347186	Steps:1 KeyPress:False Matched:True	0	1	false	true	Wrong	false	n/a	n-backMarkers
347.268664	0.004000	dropped_samples	9836.864092	Dropped 1 samples	n/a	n/a	n/a	n/a	n/a	n/a	1	UoHDataOffsetStream
347.453499	0.000000	1-back	9837.048928	Steps:1 KeyPress:False Matched:False	1	1	false	false	Correct	false	n/a	n-backMarkers
348.372177	0.004000	dropped_samples	9837.967605	Dropped 1 samples	n/a	n/a	n/a	n/a	n/a	n/a	1	UoHDataOffsetStream
348.948400	0.004000	dropped_samples	9838.543829	Dropped 1 samples	n/a	n/a	n/a	n/a	n/a	n/a	1	UoHDataOffsetStream
349.154651	0.000000	1-back	9838.750079	Steps:1 KeyPress:True Matched:False	0	1	true	false	Wrong	false	n/a	n-backMarkers
349.378010	0.008000	dropped_samples	9838.973438	Dropped 2 samples	n/a	n/a	n/a	n/a	n/a	n/a	2	UoHDataOffsetStream
350.677299	0.004000	dropped_samples	9840.272727	Dropped 1 samples	n/a	n/a	n/a	n/a	n/a	n/a	1	UoHDataOffsetStream
350.856781	0.000000	1-back	9840.452209	Steps:1 KeyPress:False Matched:False	1	1	false	false	Correct	false	n/a	n-backMarkers
352.557567	0.000000	1-back	9842.152995	Steps:1 KeyPress:True Matched:False	0	1	true	false	Wrong	false	n/a	n-backMarkers
353.557702	0.012000	dropped_samples	9843.153130	Dropped 3 samples	n/a	n/a	n/a	n/a	n/a	n/a	3	UoHDataOffsetStream
353.987372	0.008000	dropped_samples	9843.582800	Dropped 2 samples	n/a	n/a	n/a	n/a	n/a	n/a	2	UoHDataOffsetStream
354.258598	0.000000	1-back	9843.854026	Steps:1 KeyPress:False Matched:False	1	1	false	false	Correct	false	n/a	n-backMarkers
355.960265	0.000000	1-back	9845.555694	Steps:1 KeyPress:True Matched:False	0	1	true	false	Wrong	false	n/a	n-backMarkers
357.493251	0.004000	dropped_samples	9847.088679	Dropped 1 samples	n/a	n/a	n/a	n/a	n/a	n/a	1	UoHDataOffsetStream
357.661211	0.000000	1-back	9847.256640	Steps:1 KeyPress:False Matched:True	0	1	false	true	Wrong	false	n/a	n-backMarkers
359.362528	0.000000	1-back	9848.957956	Steps:1 KeyPress:False Matched:True	0	1	false	true	Wrong	false	n/a	n-backMarkers
360.230574	0.004000	dropped_samples	9849.826003	Dropped 1 samples	n/a	n/a	n/a	n/a	n/a	n/a	1	UoHDataOffsetStream
361.063540	0.000000	1-back	9850.658968	Steps:1 KeyPress:False Matched:False	1	1	false	false	Correct	false	n/a	n-backMarkers
361.907343	0.008000	dropped_samples	9851.502771	Dropped 2 samples	n/a	n/a	n/a	n/a	n/a	n/a	2	UoHDataOffsetStream
362.765343	0.000000	1-back	9852.360772	Steps:1 KeyPress:False Matched:False	1	1	false	false	Correct	false	n/a	n-backMarkers
364.465564	0.000000	1-back	9854.060992	Steps:1 KeyPress:True Matched:False	0	1	true	false	Wrong	false	n/a	n-backMarkers
366.166807	0.000000	1-back	9855.762235	Steps:1 KeyPress:True Matched:True	1	1	true	true	Correct	false	n/a	n-backMarkers
367.620251	0.004000	dropped_samples	9857.215679	Dropped 1 samples	n/a	n/a	n/a	n/a	n/a	n/a	1	UoHDataOffsetStream
367.867704	0.000000	1-back	9857.463132	Steps:1 KeyPress:False Matched:True	0	1	false	true	Wrong	false	n/a	n-backMarkers
369.569378	0.000000	1-back	9859.164806	Steps:1 KeyPress:False Matched:True	0	1	false	true	Wrong	false	n/a	n-backMarkers
369.661221	0.004000	dropped_samples	9859.256649	Dropped 1 samples	n/a	n/a	n/a	n/a	n/a	n/a	1	UoHDataOffsetStream
371.269585	0.000000	1-back	9860.865014	Steps:1 KeyPress:False Matched:False	1	1	false	false	Correct	false	n/a	n-backMarkers
372.969585	0.000000	1-back	9862.565013	Steps:1 KeyPress:False Matched:False	1	1	false	false	Correct	false	n/a	n-backMarkers
374.670422	0.000000	1-back	9864.265850	Steps:1 KeyPress:False Matched:False	1	1	false	false	Correct	false	n/a	n-backMarkers
374.675954	0.004000	dropped_samples	9864.271382	Dropped 1 samples	n/a	n/a	n/a	n/a	n/a	n/a	1	UoHDataOffsetStream
375.686641	0.004000	dropped_samples	9865.282069	Dropped 1 samples	n/a	n/a	n/a	n/a	n/a	n/a	1	UoHDataOffsetStream
376.258134	0.012000	dropped_samples	9865.853562	Dropped 3 samples	n/a	n/a	n/a	n/a	n/a	n/a	3	UoHDataOffsetStream
376.371431	0.000000	1-back	9865.966859	Steps:1 KeyPress:True Matched:False	0	1	true	false	Wrong	false	n/a	n-backMarkers
377.986494	0.004000	dropped_samples	9867.581922	Dropped 1 samples	n/a	n/a	n/a	n/a	n/a	n/a	1	UoHDataOffsetStream
378.071693	0.000000	1-back	9867.667121	Steps:1 KeyPress:False Matched:False	1	1	false	false	Correct	false	n/a	n-backMarkers
379.772966	0.000000	1-back	9869.368394	Steps:1 KeyPress:True Matched:False	0	1	true	false	Wrong	false	n/a	n-backMarkers
381.473955	0.000000	1-back	9871.069383	Steps:1 KeyPress:False Matched:False	1	1	false	false	Correct	false	n/a	n-backMarkers
383.174616	0.000000	1-back	9872.770044	Steps:1 KeyPress:True Matched:False	0	1	true	false	Wrong	false	n/a	n-backMarkers
384.754048	0.004000	dropped_samples	9874.349476	Dropped 1 samples	n/a	n/a	n/a	n/a	n/a	n/a	1	UoHDataOffsetStream
384.875579	0.000000	1-back	9874.471008	Steps:1 KeyPress:True Matched:True	1	1	true	true	Correct	false	n/a	n-backMarkers
384.949405	0.004000	dropped_samples	9874.544833	Dropped 1 samples	n/a	n/a	n/a	n/a	n/a	n/a	1	UoHDataOffsetStream
386.576716	0.000000	1-back	9876.172144	Steps:1 KeyPress:False Matched:True	0	1	false	true	Wrong	false	n/a	n-backMarkers
386.795077	0.004000	dropped_samples	9876.390505	Dropped 1 samples	n/a	n/a	n/a	n/a	n/a	n/a	1	UoHDataOffsetStream
388.278463	0.000000	1-back	9877.873891	Steps:1 KeyPress:False Matched:True	0	1	false	true	Wrong	false	n/a	n-backMarkers
389.979476	0.000000	1-back	9879.574904	Steps:1 KeyPress:False Matched:False	1	1	false	false	Correct	false	n/a	n-backMarkers
391.679726	0.000000	1-back	9881.275155	Steps:1 KeyPress:False Matched:False	1	1	false	false	Correct	false	n/a	n-backMarkers
392.391030	0.012000	dropped_samples	9881.986458	Dropped 3 samples	n/a	n/a	n/a	n/a	n/a	n/a	3	UoHDataOffsetStream
392.771658	0.008000	dropped_samples	9882.367087	Dropped 2 samples	n/a	n/a	n/a	n/a	n/a	n/a	2	UoHDataOffsetStream
393.006131	0.004000	dropped_samples	9882.601560	Dropped 1 samples	n/a	n/a	n/a	n/a	n/a	n/a	1	UoHDataOffsetStream
393.381328	0.000000	1-back	9882.976757	Steps:1 KeyPress:True Matched:False	0	1	true	false	Wrong	false	n/a	n-backMarkers
394.739465	0.012000	dropped_samples	9884.334893	Dropped 3 samples	n/a	n/a	n/a	n/a	n/a	n/a	3	UoHDataOffsetStream
394.861520	0.004000	dropped_samples	9884.456948	Dropped 1 samples	n/a	n/a	n/a	n/a	n/a	n/a	1	UoHDataOffsetStream
395.081539	0.000000	1-back	9884.676967	Steps:1 KeyPress:True Matched:True	1	1	true	true	Correct	false	n/a	n-backMarkers
396.492398	0.012000	dropped_samples	9886.087827	Dropped 3 samples	n/a	n/a	n/a	n/a	n/a	n/a	3	UoHDataOffsetStream
396.782452	0.000000	1-back	9886.377880	Steps:1 KeyPress:False Matched:True	0	1	false	true	Wrong	false	n/a	n-backMarkers
398.483468	0.000000	1-back	9888.078897	Steps:1 KeyPress:False Matched:False	1	1	false	false	Correct	false	n/a	n-backMarkers
398.894754	0.004000	dropped_samples	9888.490182	Dropped 1 samples	n/a	n/a	n/a	n/a	n/a	n/a	1	UoHDataOffsetStream
399.612526	0.004000	dropped_samples	9889.207954	Dropped 1 samples	n/a	n/a	n/a	n/a	n/a	n/a	1	UoHDataOffsetStream
399.754101	0.004000	dropped_samples	9889.349529	Dropped 1 samples	n/a	n/a	n/a	n/a	n/a	n/a	1	UoHDataOffsetStream
399.900617	0.004000	dropped_samples	9889.496045	Dropped 1 samples	n/a	n/a	n/a	n/a	n/a	n/a	1	UoHDataOffsetStream
400.066570	0.012000	dropped_samples	9889.661998	Dropped 3 samples	n/a	n/a	n/a	n/a	n/a	n/a	3	UoHDataOffsetStream
400.184828	0.000000	1-back	9889.780256	Steps:1 KeyPress:True Matched:False	0	1	true	false	Wrong	false	n/a	n-backMarkers
400.427938	0.012000	dropped_samples	9890.023366	Dropped 3 samples	n/a	n/a	n/a	n/a	n/a	n/a	3	UoHDataOffsetStream
401.844035	0.004000	dropped_samples	9891.439463	Dropped 1 samples	n/a	n/a	n/a	n/a	n/a	n/a	1	UoHDataOffsetStream
401.885516	0.000000	1-back	9891.480944	Steps:1 KeyPress:False Matched:True	0	1	false	true	Wrong	false	n/a	n-backMarkers
402.322480	0.004000	dropped_samples	9891.917908	Dropped 1 samples	n/a	n/a	n/a	n/a	n/a	n/a	1	UoHDataOffsetStream
402.898647	0.004000	dropped_samples	9892.494075	Dropped 1 samples	n/a	n/a	n/a	n/a	n/a	n/a	1	UoHDataOffsetStream
403.118382	0.008000	dropped_samples	9892.713810	Dropped 2 samples	n/a	n/a	n/a	n/a	n/a	n/a	2	UoHDataOffsetStream
403.585628	0.000000	1-back	9893.181056	Steps:1 KeyPress:False Matched:True	0	1	false	true	Wrong	false	n/a	n-backMarkers
404.890841	0.004000	dropped_samples	9894.486269	Dropped 1 samples	n/a	n/a	n/a	n/a	n/a	n/a	1	UoHDataOffsetStream
405.286520	0.000000	1-back	9894.881949	Steps:1 KeyPress:True Matched:False	0	1	true	false	Wrong	false	n/a	n-backMarkers
405.692584	0.012000	dropped_samples	9895.288012	Dropped 3 samples	n/a	n/a	n/a	n/a	n/a	n/a	3	UoHDataOffsetStream
405.819005	0.012000	dropped_samples	9895.414433	Dropped 3 samples	n/a	n/a	n/a	n/a	n/a	n/a	3	UoHDataOffsetStream
405.820452	0.012000	dropped_samples	9895.415880	Dropped 3 samples	n/a	n/a	n/a	n/a	n/a	n/a	3	UoHDataOffsetStream
405.852709	0.036000	dropped_samples	9895.448137	Dropped 9 samples	n/a	n/a	n/a	n/a	n/a	n/a	9	UoHDataOffsetStream
405.901570	0.004000	dropped_samples	9895.496998	Dropped 1 samples	n/a	n/a	n/a	n/a	n/a	n/a	1	UoHDataOffsetStream
406.101425	0.012000	dropped_samples	9895.696854	Dropped 3 samples	n/a	n/a	n/a	n/a	n/a	n/a	3	UoHDataOffsetStream
406.619373	0.012000	dropped_samples	9896.214801	Dropped 3 samples	n/a	n/a	n/a	n/a	n/a	n/a	3	UoHDataOffsetStream
406.986964	0.000000	1-back	9896.582392	Steps:1 KeyPress:True Matched:False	0	1	true	false	Wrong	false	n/a	n-backMarkers
407.654743	0.012000	dropped_samples	9897.250171	Dropped 3 samples	n/a	n/a	n/a	n/a	n/a	n/a	3	UoHDataOffsetStream
407.893785	0.004000	dropped_samples	9897.489214	Dropped 1 samples	n/a	n/a	n/a	n/a	n/a	n/a	1	UoHDataOffsetStream
408.688820	0.000000	1-back	9898.284249	Steps:1 KeyPress:False Matched:False	1	1	false	false	Correct	false	n/a	n-backMarkers
408.899679	0.004000	dropped_samples	9898.495107	Dropped 1 samples	n/a	n/a	n/a	n/a	n/a	n/a	1	UoHDataOffsetStream
409.910375	0.004000	dropped_samples	9899.505803	Dropped 1 samples	n/a	n/a	n/a	n/a	n/a	n/a	1	UoHDataOffsetStream
410.388581	0.000000	1-back	9899.984009	Steps:1 KeyPress:False Matched:False	1	1	false	false	Correct	false	n/a	n-backMarkers
410.478076	0.012000	dropped_samples	9900.073504	Dropped 3 samples	n/a	n/a	n/a	n/a	n/a	n/a	3	UoHDataOffsetStream
410.510956	0.012000	dropped_samples	9900.106385	Dropped 3 samples	n/a	n/a	n/a	n/a	n/a	n/a	3	UoHDataOffsetStream
410.784985	0.004000	dropped_samples	9900.380413	Dropped 1 samples	n/a	n/a	n/a	n/a	n/a	n/a	1	UoHDataOffsetStream
410.854003	0.012000	dropped_samples	9900.449431	Dropped 3 samples	n/a	n/a	n/a	n/a	n/a	n/a	3	UoHDataOffsetStream
412.089334	0.000000	1-back	9901.684762	Steps:1 KeyPress:False Matched:False	1	1	false	false	Correct	false	n/a	n-backMarkers
413.789948	0.000000	1-back	9903.385376	Steps:1 KeyPress:False Matched:False	1	1	false	false	Correct	false	n/a	n-backMarkers
415.490668	0.000000	1-back	9905.086097	Steps:1 KeyPress:False Matched:False	1	1	false	false	Correct	false	n/a	n-backMarkers
415.906461	0.004000	dropped_samples	9905.501889	Dropped 1 samples	n/a	n/a	n/a	n/a	n/a	n/a	1	UoHDataOffsetStream
416.126165	0.008000	dropped_samples	9905.721593	Dropped 2 samples	n/a	n/a	n/a	n/a	n/a	n/a	2	UoHDataOffsetStream
416.917227	0.004000	dropped_samples	9906.512656	Dropped 1 samples	n/a	n/a	n/a	n/a	n/a	n/a	1	UoHDataOffsetStream
417.191384	0.000000	1-back	9906.786812	Steps:1 KeyPress:True Matched:False	0	1	true	false	Wrong	false	n/a	n-backMarkers
417.708287	0.012000	dropped_samples	9907.303715	Dropped 3 samples	n/a	n/a	n/a	n/a	n/a	n/a	3	UoHDataOffsetStream
418.892510	0.000000	1-back	9908.487938	Steps:1 KeyPress:False Matched:False	1	1	false	false	Correct	false	n/a	n-backMarkers
419.534430	0.012000	dropped_samples	9909.129858	Dropped 3 samples	n/a	n/a	n/a	n/a	n/a	n/a	3	UoHDataOffsetStream
420.593517	0.000000	1-back	9910.188945	Steps:1 KeyPress:True Matched:False	0	1	true	false	Wrong	false	n/a	n-backMarkers
420.926047	0.004000	dropped_samples	9910.521475	Dropped 1 samples	n/a	n/a	n/a	n/a	n/a	n/a	1	UoHDataOffsetStream
421.854202	0.004000	dropped_samples	9911.449630	Dropped 1 samples	n/a	n/a	n/a	n/a	n/a	n/a	1	UoHDataOffsetStream
422.294444	0.000000	1-back	9911.889872	Steps:1 KeyPress:False Matched:True	0	1	false	true	Wrong	false	n/a	n-backMarkers
422.698516	0.012000	dropped_samples	9912.293944	Dropped 3 samples	n/a	n/a	n/a	n/a	n/a	n/a	3	UoHDataOffsetStream
422.796167	0.004000	dropped_samples	9912.391595	Dropped 1 samples	n/a	n/a	n/a	n/a	n/a	n/a	1	UoHDataOffsetStream
423.347929	0.012000	dropped_samples	9912.943358	Dropped 3 samples	n/a	n/a	n/a	n/a	n/a	n/a	3	UoHDataOffsetStream
423.995595	0.000000	1-back	9913.591023	Steps:1 KeyPress:False Matched:True	0	1	false	true	Wrong	false	n/a	n-backMarkers
425.696348	0.000000	1-back	9915.291776	Steps:1 KeyPress:False Matched:False	1	1	false	false	Correct	false	n/a	n-backMarkers
425.966590	0.004000	dropped_samples	9915.562018	Dropped 1 samples	n/a	n/a	n/a	n/a	n/a	n/a	1	UoHDataOffsetStream
426.682887	0.004000	dropped_samples	9916.278316	Dropped 1 samples	n/a	n/a	n/a	n/a	n/a	n/a	1	UoHDataOffsetStream
427.397473	0.000000	1-back	9916.992901	Steps:1 KeyPress:False Matched:False	1	1	false	false	Correct	false	n/a	n-backMarkers
429.097546	0.000000	1-back	9918.692975	Steps:1 KeyPress:True Matched:False	0	1	true	false	Wrong	false	n/a	n-backMarkers
430.598933	0.004000	dropped_samples	9920.194362	Dropped 1 samples	n/a	n/a	n/a	n/a	n/a	n/a	1	UoHDataOffsetStream
430.798563	0.000000	1-back	9920.393991	Steps:1 KeyPress:True Matched:True	1	1	true	true	Correct	false	n/a	n-backMarkers
432.014918	0.004000	dropped_samples	9921.610346	Dropped 1 samples	n/a	n/a	n/a	n/a	n/a	n/a	1	UoHDataOffsetStream
432.500327	0.000000	1-back	9922.095755	Steps:1 KeyPress:False Matched:True	0	1	false	true	Wrong	false	n/a	n-backMarkers
433.186803	0.004000	dropped_samples	9922.782231	Dropped 1 samples	n/a	n/a	n/a	n/a	n/a	n/a	1	UoHDataOffsetStream
434.201106	0.000000	1-back	9923.796534	Steps:1 KeyPress:False Matched:True	0	1	false	true	Wrong	false	n/a	n-backMarkers
435.902477	0.000000	1-back	9925.497906	Steps:1 KeyPress:False Matched:False	1	1	false	false	Correct	false	n/a	n-backMarkers
437.603549	0.000000	1-back	9927.198977	Steps:1 KeyPress:True Matched:False	0	1	true	false	Wrong	false	n/a	n-backMarkers
438.997336	0.004000	dropped_samples	9928.592765	Dropped 1 samples	n/a	n/a	n/a	n/a	n/a	n/a	1	UoHDataOffsetStream
439.304338	0.000000	1-back	9928.899766	Steps:1 KeyPress:False Matched:True	0	1	false	true	Wrong	false	n/a	n-backMarkers
441.005617	0.000000	1-back	9930.601045	Steps:1 KeyPress:False Matched:False	1	1	false	false	Correct	false	n/a	n-backMarkers
442.706373	0.000000	1-back	9932.301802	Steps:1 KeyPress:True Matched:False	0	1	true	false	Wrong	false	n/a	n-backMarkers
446.175144	0.004000	dropped_samples	9935.770572	Dropped 1 samples	n/a	n/a	n/a	n/a	n/a	n/a	1	UoHDataOffsetStream
447.180972	0.004000	dropped_samples	9936.776400	Dropped 1 samples	n/a	n/a	n/a	n/a	n/a	n/a	1	UoHDataOffsetStream
451.410139	0.000000	2-back	9941.005567	Steps:2 KeyPress:False Matched:False	1	2	false	false	Correct	false	n/a	n-backMarkers
452.679057	0.004000	dropped_samples	9942.274485	Dropped 1 samples	n/a	n/a	n/a	n/a	n/a	n/a	1	UoHDataOffsetStream
453.110592	0.000000	2-back	9942.706020	Steps:2 KeyPress:False Matched:False	1	2	false	false	Correct	false	n/a	n-backMarkers
454.811405	0.000000	2-back	9944.406834	Steps:2 KeyPress:False Matched:False	1	2	false	false	Correct	false	n/a	n-backMarkers
454.934869	0.012000	dropped_samples	9944.530297	Dropped 3 samples	n/a	n/a	n/a	n/a	n/a	n/a	3	UoHDataOffsetStream
455.247402	0.004000	dropped_samples	9944.842830	Dropped 1 samples	n/a	n/a	n/a	n/a	n/a	n/a	1	UoHDataOffsetStream
456.512391	0.000000	2-back	9946.107819	Steps:2 KeyPress:False Matched:False	1	2	false	false	Correct	false	n/a	n-backMarkers
457.093111	0.004000	dropped_samples	9946.688539	Dropped 1 samples	n/a	n/a	n/a	n/a	n/a	n/a	1	UoHDataOffsetStream
458.212944	0.000000	2-back	9947.808372	Steps:2 KeyPress:True Matched:False	0	2	true	false	Wrong	false	n/a	n-backMarkers
459.109680	0.004000	dropped_samples	9948.705108	Dropped 1 samples	n/a	n/a	n/a	n/a	n/a	n/a	1	UoHDataOffsetStream
459.661461	0.004000	dropped_samples	9949.256889	Dropped 1 samples	n/a	n/a	n/a	n/a	n/a	n/a	1	UoHDataOffsetStream
459.914324	0.000000	2-back	9949.509752	Steps:2 KeyPress:False Matched:True	0	2	false	true	Wrong	false	n/a	n-backMarkers
461.616383	0.000000	2-back	9951.211811	Steps:2 KeyPress:False Matched:False	1	2	false	false	Correct	false	n/a	n-backMarkers
462.107790	0.004000	dropped_samples	9951.703218	Dropped 1 samples	n/a	n/a	n/a	n/a	n/a	n/a	1	UoHDataOffsetStream
463.317733	0.000000	2-back	9952.913161	Steps:2 KeyPress:False Matched:False	1	2	false	false	Correct	false	n/a	n-backMarkers
465.018426	0.000000	2-back	9954.613855	Steps:2 KeyPress:True Matched:False	0	2	true	false	Wrong	false	n/a	n-backMarkers
466.719462	0.000000	2-back	9956.314890	Steps:2 KeyPress:False Matched:True	0	2	false	true	Wrong	false	n/a	n-backMarkers
468.421301	0.000000	2-back	9958.016729	Steps:2 KeyPress:False Matched:False	1	2	false	false	Correct	false	n/a	n-backMarkers
470.122426	0.000000	2-back	9959.717854	Steps:2 KeyPress:False Matched:True	0	2	false	true	Wrong	false	n/a	n-backMarkers
471.565856	0.004000	dropped_samples	9961.161284	Dropped 1 samples	n/a	n/a	n/a	n/a	n/a	n/a	1	UoHDataOffsetStream
471.823381	0.000000	2-back	9961.418809	Steps:2 KeyPress:True Matched:False	0	2	true	false	Wrong	false	n/a	n-backMarkers
473.196649	0.004000	dropped_samples	9962.792078	Dropped 1 samples	n/a	n/a	n/a	n/a	n/a	n/a	1	UoHDataOffsetStream
473.411515	0.004000	dropped_samples	9963.006943	Dropped 1 samples	n/a	n/a	n/a	n/a	n/a	n/a	1	UoHDataOffsetStream
473.524722	0.000000	2-back	9963.120151	Steps:2 KeyPress:False Matched:False	1	2	false	false	Correct	false	n/a	n-backMarkers
474.207437	0.004000	dropped_samples	9963.802865	Dropped 1 samples	n/a	n/a	n/a	n/a	n/a	n/a	1	UoHDataOffsetStream
474.759147	0.004000	dropped_samples	9964.354576	Dropped 1 samples	n/a	n/a	n/a	n/a	n/a	n/a	1	UoHDataOffsetStream
475.225098	0.000000	2-back	9964.820527	Steps:2 KeyPress:False Matched:False	1	2	false	false	Correct	false	n/a	n-backMarkers
476.925572	0.000000	2-back	9966.521001	Steps:2 KeyPress:False Matched:False	1	2	false	false	Correct	false	n/a	n-backMarkers
478.626380	0.000000	2-back	9968.221808	Steps:2 KeyPress:True Matched:True	1	2	true	true	Correct	false	n/a	n-backMarkers
479.270945	0.004000	dropped_samples	9968.866373	Dropped 1 samples	n/a	n/a	n/a	n/a	n/a	n/a	1	UoHDataOffsetStream
479.939864	0.004000	dropped_samples	9969.535292	Dropped 1 samples	n/a	n/a	n/a	n/a	n/a	n/a	1	UoHDataOffsetStream
480.327213	0.000000	2-back	9969.922642	Steps:2 KeyPress:False Matched:False	1	2	false	false	Correct	false	n/a	n-backMarkers
480.662506	0.004000	dropped_samples	9970.257935	Dropped 1 samples	n/a	n/a	n/a	n/a	n/a	n/a	1	UoHDataOffsetStream
481.980875	0.004000	dropped_samples	9971.576303	Dropped 1 samples	n/a	n/a	n/a	n/a	n/a	n/a	1	UoHDataOffsetStream
482.028632	0.000000	2-back	9971.624060	Steps:2 KeyPress:False Matched:False	1	2	false	false	Correct	false	n/a	n-backMarkers
483.729343	0.000000	2-back	9973.324771	Steps:2 KeyPress:True Matched:False	0	2	true	false	Wrong	false	n/a	n-backMarkers
484.500432	0.004000	dropped_samples	9974.095860	Dropped 1 samples	n/a	n/a	n/a	n/a	n/a	n/a	1	UoHDataOffsetStream
485.429503	0.000000	2-back	9975.024931	Steps:2 KeyPress:False Matched:True	0	2	false	true	Wrong	false	n/a	n-backMarkers
485.535554	0.004000	dropped_samples	9975.130983	Dropped 1 samples	n/a	n/a	n/a	n/a	n/a	n/a	1	UoHDataOffsetStream
487.130381	0.000000	2-back	9976.725809	Steps:2 KeyPress:False Matched:False	1	2	false	false	Correct	false	n/a	n-backMarkers
487.571712	0.004000	dropped_samples	9977.167140	Dropped 1 samples	n/a	n/a	n/a	n/a	n/a	n/a	1	UoHDataOffsetStream
488.582457	0.004000	dropped_samples	9978.177885	Dropped 1 samples	n/a	n/a	n/a	n/a	n/a	n/a	1	UoHDataOffsetStream
488.832669	0.000000	2-back	9978.428098	Steps:2 KeyPress:False Matched:False	1	2	false	false	Correct	false	n/a	n-backMarkers
490.533430	0.000000	2-back	9980.128858	Steps:2 KeyPress:False Matched:False	1	2	false	false	Correct	false	n/a	n-backMarkers
492.233500	0.000000	2-back	9981.828928	Steps:2 KeyPress:True Matched:False	0	2	true	false	Wrong	false	n/a	n-backMarkers
493.934856	0.000000	2-back	9983.530284	Steps:2 KeyPress:False Matched:False	1	2	false	false	Correct	false	n/a	n-backMarkers
495.636168	0.000000	2-back	9985.231596	Steps:2 KeyPress:True Matched:False	0	2	true	false	Wrong	false	n/a	n-backMarkers
497.336319	0.000000	2-back	9986.931747	Steps:2 KeyPress:False Matched:True	0	2	false	true	Wrong	false	n/a	n-backMarkers
497.703580	0.004000	dropped_samples	9987.299008	Dropped 1 samples	n/a	n/a	n/a	n/a	n/a	n/a	1	UoHDataOffsetStream
499.037337	0.000000	2-back	9988.632765	Steps:2 KeyPress:False Matched:False	1	2	false	false	Correct	false	n/a	n-backMarkers
500.737388	0.000000	2-back	9990.332816	Steps:2 KeyPress:False Matched:True	0	2	false	true	Wrong	false	n/a	n-backMarkers
502.438536	0.000000	2-back	9992.033964	Steps:2 KeyPress:False Matched:False	1	2	false	false	Correct	false	n/a	n-backMarkers
504.140754	0.000000	2-back	9993.736182	Steps:2 KeyPress:False Matched:False	1	2	false	false	Correct	false	n/a	n-backMarkers
504.373512	0.004000	dropped_samples	9993.968940	Dropped 1 samples	n/a	n/a	n/a	n/a	n/a	n/a	1	UoHDataOffsetStream
505.841297	0.000000	2-back	9995.436725	Steps:2 KeyPress:False Matched:False	1	2	false	false	Correct	false	n/a	n-backMarkers
506.917421	0.012000	dropped_samples	9996.512849	Dropped 3 samples	n/a	n/a	n/a	n/a	n/a	n/a	3	UoHDataOffsetStream
507.543179	0.000000	2-back	9997.138607	Steps:2 KeyPress:True Matched:False	0	2	true	false	Wrong	false	n/a	n-backMarkers
508.431104	0.004000	dropped_samples	9998.026532	Dropped 1 samples	n/a	n/a	n/a	n/a	n/a	n/a	1	UoHDataOffsetStream
508.768035	0.004000	dropped_samples	9998.363463	Dropped 1 samples	n/a	n/a	n/a	n/a	n/a	n/a	1	UoHDataOffsetStream
509.244442	0.000000	2-back	9998.839870	Steps:2 KeyPress:False Matched:False	1	2	false	false	Correct	false	n/a	n-backMarkers
510.159896	0.004000	dropped_samples	9999.755324	Dropped 1 samples	n/a	n/a	n/a	n/a	n/a	n/a	1	UoHDataOffsetStream
510.472169	0.004000	dropped_samples	10000.067597	Dropped 1 samples	n/a	n/a	n/a	n/a	n/a	n/a	1	UoHDataOffsetStream
510.944508	0.000000	2-back	10000.539936	Steps:2 KeyPress:True Matched:False	0	2	true	false	Wrong	false	n/a	n-backMarkers
511.790481	0.012000	dropped_samples	10001.385909	Dropped 3 samples	n/a	n/a	n/a	n/a	n/a	n/a	3	UoHDataOffsetStream
512.645978	0.000000	2-back	10002.241406	Steps:2 KeyPress:False Matched:True	0	2	false	true	Wrong	false	n/a	n-backMarkers
512.869610	0.008000	dropped_samples	10002.465038	Dropped 2 samples	n/a	n/a	n/a	n/a	n/a	n/a	2	UoHDataOffsetStream
513.372506	0.004000	dropped_samples	10002.967934	Dropped 1 samples	n/a	n/a	n/a	n/a	n/a	n/a	1	UoHDataOffsetStream
513.494624	0.004000	dropped_samples	10003.090052	Dropped 1 samples	n/a	n/a	n/a	n/a	n/a	n/a	1	UoHDataOffsetStream
513.855924	0.004000	dropped_samples	10003.451352	Dropped 1 samples	n/a	n/a	n/a	n/a	n/a	n/a	1	UoHDataOffsetStream
514.347074	0.000000	2-back	10003.942503	Steps:2 KeyPress:False Matched:False	1	2	false	false	Correct	false	n/a	n-backMarkers
514.739730	0.004000	dropped_samples	10004.335158	Dropped 1 samples	n/a	n/a	n/a	n/a	n/a	n/a	1	UoHDataOffsetStream
516.048553	0.000000	2-back	10005.643981	Steps:2 KeyPress:False Matched:True	0	2	false	true	Wrong	false	n/a	n-backMarkers
517.527835	0.004000	dropped_samples	10007.123263	Dropped 1 samples	n/a	n/a	n/a	n/a	n/a	n/a	1	UoHDataOffsetStream
517.748367	0.000000	2-back	10007.343796	Steps:2 KeyPress:False Matched:False	1	2	false	false	Correct	false	n/a	n-backMarkers
517.884353	0.008000	dropped_samples	10007.479781	Dropped 2 samples	n/a	n/a	n/a	n/a	n/a	n/a	2	UoHDataOffsetStream
518.411590	0.004000	dropped_samples	10008.007019	Dropped 1 samples	n/a	n/a	n/a	n/a	n/a	n/a	1	UoHDataOffsetStream
518.484863	0.004000	dropped_samples	10008.080291	Dropped 1 samples	n/a	n/a	n/a	n/a	n/a	n/a	1	UoHDataOffsetStream
519.449288	0.000000	2-back	10009.044716	Steps:2 KeyPress:False Matched:False	1	2	false	false	Correct	false	n/a	n-backMarkers
519.471184	0.012000	dropped_samples	10009.066612	Dropped 3 samples	n/a	n/a	n/a	n/a	n/a	n/a	3	UoHDataOffsetStream
519.783754	0.012000	dropped_samples	10009.379182	Dropped 3 samples	n/a	n/a	n/a	n/a	n/a	n/a	3	UoHDataOffsetStream
520.887266	0.004000	dropped_samples	10010.482694	Dropped 1 samples	n/a	n/a	n/a	n/a	n/a	n/a	1	UoHDataOffsetStream
521.028802	0.004000	dropped_samples	10010.624230	Dropped 1 samples	n/a	n/a	n/a	n/a	n/a	n/a	1	UoHDataOffsetStream
521.150371	0.000000	2-back	10010.745799	Steps:2 KeyPress:True Matched:False	0	2	true	false	Wrong	false	n/a	n-backMarkers
521.580618	0.004000	dropped_samples	10011.176047	Dropped 1 samples	n/a	n/a	n/a	n/a	n/a	n/a	1	UoHDataOffsetStream
522.850458	0.000000	2-back	10012.445886	Steps:2 KeyPress:False Matched:True	0	2	false	true	Wrong	false	n/a	n-backMarkers
522.972207	0.004000	dropped_samples	10012.567635	Dropped 1 samples	n/a	n/a	n/a	n/a	n/a	n/a	1	UoHDataOffsetStream
524.552309	0.000000	2-back	10014.147737	Steps:2 KeyPress:False Matched:False	1	2	false	false	Correct	false	n/a	n-backMarkers
524.607930	0.004000	dropped_samples	10014.203359	Dropped 1 samples	n/a	n/a	n/a	n/a	n/a	n/a	1	UoHDataOffsetStream
524.896013	0.008000	dropped_samples	10014.491441	Dropped 2 samples	n/a	n/a	n/a	n/a	n/a	n/a	2	UoHDataOffsetStream
526.253927	0.000000	2-back	10015.849355	Steps:2 KeyPress:False Matched:True	0	2	false	true	Wrong	false	n/a	n-backMarkers
527.954244	0.000000	2-back	10017.549672	Steps:2 KeyPress:False Matched:False	1	2	false	false	Correct	false	n/a	n-backMarkers
529.655248	0.000000	2-back	10019.250676	Steps:2 KeyPress:False Matched:False	1	2	false	false	Correct	false	n/a	n-backMarkers
530.076636	0.012000	dropped_samples	10019.672065	Dropped 3 samples	n/a	n/a	n/a	n/a	n/a	n/a	3	UoHDataOffsetStream
531.111857	0.004000	dropped_samples	10020.707286	Dropped 1 samples	n/a	n/a	n/a	n/a	n/a	n/a	1	UoHDataOffsetStream
531.356191	0.000000	2-back	10020.951620	Steps:2 KeyPress:False Matched:False	1	2	false	false	Correct	false	n/a	n-backMarkers
532.982004	0.004000	dropped_samples	10022.577432	Dropped 1 samples	n/a	n/a	n/a	n/a	n/a	n/a	1	UoHDataOffsetStream
533.057036	0.000000	2-back	10022.652464	Steps:2 KeyPress:False Matched:False	1	2	false	false	Correct	false	n/a	n-backMarkers
534.757381	0.000000	2-back	10024.352809	Steps:2 KeyPress:True Matched:False	0	2	true	false	Wrong	false	n/a	n-backMarkers
534.998663	0.004000	dropped_samples	10024.594091	Dropped 1 samples	n/a	n/a	n/a	n/a	n/a	n/a	1	UoHDataOffsetStream
535.691942	0.024000	dropped_samples	10025.287370	Dropped 6 samples	n/a	n/a	n/a	n/a	n/a	n/a	6	UoHDataOffsetStream
535.765191	0.004000	dropped_samples	10025.360619	Dropped 1 samples	n/a	n/a	n/a	n/a	n/a	n/a	1	UoHDataOffsetStream
536.459125	0.000000	2-back	10026.054553	Steps:2 KeyPress:False Matched:False	1	2	false	false	Correct	false	n/a	n-backMarkers
537.015184	0.004000	dropped_samples	10026.610613	Dropped 1 samples	n/a	n/a	n/a	n/a	n/a	n/a	1	UoHDataOffsetStream
538.021036	0.004000	dropped_samples	10027.616464	Dropped 1 samples	n/a	n/a	n/a	n/a	n/a	n/a	1	UoHDataOffsetStream
538.159466	0.000000	2-back	10027.754895	Steps:2 KeyPress:False Matched:False	1	2	false	false	Correct	false	n/a	n-backMarkers
539.861170	0.000000	2-back	10029.456598	Steps:2 KeyPress:False Matched:False	1	2	false	false	Correct	false	n/a	n-backMarkers
540.037717	0.004000	dropped_samples	10029.633145	Dropped 1 samples	n/a	n/a	n/a	n/a	n/a	n/a	1	UoHDataOffsetStream
541.562352	0.000000	2-back	10031.157781	Steps:2 KeyPress:True Matched:False	0	2	true	false	Wrong	false	n/a	n-backMarkers
543.060285	0.004000	dropped_samples	10032.655713	Dropped 1 samples	n/a	n/a	n/a	n/a	n/a	n/a	1	UoHDataOffsetStream
543.263383	0.000000	2-back	10032.858812	Steps:2 KeyPress:False Matched:False	1	2	false	false	Correct	false	n/a	n-backMarkers
544.070865	0.004000	dropped_samples	10033.666293	Dropped 1 samples	n/a	n/a	n/a	n/a	n/a	n/a	1	UoHDataOffsetStream
544.261297	0.008000	dropped_samples	10033.856725	Dropped 2 samples	n/a	n/a	n/a	n/a	n/a	n/a	2	UoHDataOffsetStream
544.963902	0.000000	2-back	10034.559330	Steps:2 KeyPress:True Matched:False	0	2	true	false	Wrong	false	n/a	n-backMarkers
546.112096	0.004000	dropped_samples	10035.707524	Dropped 1 samples	n/a	n/a	n/a	n/a	n/a	n/a	1	UoHDataOffsetStream
546.665120	0.000000	2-back	10036.260549	Steps:2 KeyPress:False Matched:True	0	2	false	true	Wrong	false	n/a	n-backMarkers
548.319052	0.008000	dropped_samples	10037.914480	Dropped 2 samples	n/a	n/a	n/a	n/a	n/a	n/a	2	UoHDataOffsetStream
548.366347	0.000000	2-back	10037.961775	Steps:2 KeyPress:False Matched:False	1	2	false	false	Correct	false	n/a	n-backMarkers
549.109919	0.004000	dropped_samples	10038.705348	Dropped 1 samples	n/a	n/a	n/a	n/a	n/a	n/a	1	UoHDataOffsetStream
550.066430	0.000000	2-back	10039.661859	Steps:2 KeyPress:True Matched:True	1	2	true	true	Correct	false	n/a	n-backMarkers
551.767215	0.000000	2-back	10041.362643	Steps:2 KeyPress:False Matched:True	0	2	false	true	Wrong	false	n/a	n-backMarkers
551.917553	0.004000	dropped_samples	10041.512981	Dropped 1 samples	n/a	n/a	n/a	n/a	n/a	n/a	1	UoHDataOffsetStream
552.088439	0.004000	dropped_samples	10041.683867	Dropped 1 samples	n/a	n/a	n/a	n/a	n/a	n/a	1	UoHDataOffsetStream
553.468316	0.000000	2-back	10043.063744	Steps:2 KeyPress:False Matched:False	1	2	false	false	Correct	false	n/a	n-backMarkers
553.958557	0.008000	dropped_samples	10043.553985	Dropped 2 samples	n/a	n/a	n/a	n/a	n/a	n/a	2	UoHDataOffsetStream
555.168301	0.000000	2-back	10044.763729	Steps:2 KeyPress:False Matched:False	1	2	false	false	Correct	false	n/a	n-backMarkers
555.613898	0.012000	dropped_samples	10045.209326	Dropped 3 samples	n/a	n/a	n/a	n/a	n/a	n/a	3	UoHDataOffsetStream
556.869542	0.000000	2-back	10046.464971	Steps:2 KeyPress:True Matched:False	0	2	true	false	Wrong	false	n/a	n-backMarkers
558.570816	0.000000	2-back	10048.166244	Steps:2 KeyPress:False Matched:True	0	2	false	true	Wrong	false	n/a	n-backMarkers
560.198865	0.004000	dropped_samples	10049.794293	Dropped 1 samples	n/a	n/a	n/a	n/a	n/a	n/a	1	UoHDataOffsetStream
560.271373	0.000000	2-back	10049.866801	Steps:2 KeyPress:False Matched:False	1	2	false	false	Correct	false	n/a	n-backMarkers
561.972702	0.000000	2-back	10051.568130	Steps:2 KeyPress:False Matched:False	1	2	false	false	Correct	false	n/a	n-backMarkers
562.068959	0.004000	dropped_samples	10051.664387	Dropped 1 samples	n/a	n/a	n/a	n/a	n/a	n/a	1	UoHDataOffsetStream
562.791845	0.004000	dropped_samples	10052.387273	Dropped 1 samples	n/a	n/a	n/a	n/a	n/a	n/a	1	UoHDataOffsetStream
563.672643	0.000000	2-back	10053.268071	Steps:2 KeyPress:False Matched:False	1	2	false	false	Correct	false	n/a	n-backMarkers
564.085559	0.004000	dropped_samples	10053.680987	Dropped 1 samples	n/a	n/a	n/a	n/a	n/a	n/a	1	UoHDataOffsetStream
565.373488	0.000000	2-back	10054.968916	Steps:2 KeyPress:True Matched:False	0	2	true	false	Wrong	false	n/a	n-backMarkers
567.075213	0.000000	2-back	10056.670641	Steps:2 KeyPress:False Matched:False	1	2	false	false	Correct	false	n/a	n-backMarkers
567.132439	0.004000	dropped_samples	10056.727867	Dropped 1 samples	n/a	n/a	n/a	n/a	n/a	n/a	1	UoHDataOffsetStream
568.285010	0.004000	dropped_samples	10057.880438	Dropped 1 samples	n/a	n/a	n/a	n/a	n/a	n/a	1	UoHDataOffsetStream
568.776950	0.000000	2-back	10058.372379	Steps:2 KeyPress:False Matched:False	1	2	false	false	Correct	false	n/a	n-backMarkers
570.478060	0.000000	2-back	10060.073488	Steps:2 KeyPress:True Matched:False	0	2	true	false	Wrong	false	n/a	n-backMarkers
571.190355	0.004000	dropped_samples	10060.785783	Dropped 1 samples	n/a	n/a	n/a	n/a	n/a	n/a	1	UoHDataOffsetStream
572.179181	0.000000	2-back	10061.774610	Steps:2 KeyPress:False Matched:True	0	2	false	true	Wrong	false	n/a	n-backMarkers
573.348822	0.004000	dropped_samples	10062.944250	Dropped 1 samples	n/a	n/a	n/a	n/a	n/a	n/a	1	UoHDataOffsetStream
573.879455	0.000000	2-back	10063.474883	Steps:2 KeyPress:False Matched:False	1	2	false	false	Correct	false	n/a	n-backMarkers
574.359303	0.004000	dropped_samples	10063.954731	Dropped 1 samples	n/a	n/a	n/a	n/a	n/a	n/a	1	UoHDataOffsetStream
575.580253	0.000000	2-back	10065.175681	Steps:2 KeyPress:False Matched:True	0	2	false	true	Wrong	false	n/a	n-backMarkers
577.281114	0.000000	2-back	10066.876543	Steps:2 KeyPress:False Matched:False	1	2	false	false	Correct	false	n/a	n-backMarkers
578.981370	0.000000	2-back	10068.576798	Steps:2 KeyPress:False Matched:False	1	2	false	false	Correct	false	n/a	n-backMarkers
580.262322	0.004000	dropped_samples	10069.857751	Dropped 1 samples	n/a	n/a	n/a	n/a	n/a	n/a	1	UoHDataOffsetStream
580.682273	0.000000	2-back	10070.277701	Steps:2 KeyPress:False Matched:False	1	2	false	false	Correct	false	n/a	n-backMarkers
582.383239	0.000000	2-back	10071.978667	Steps:2 KeyPress:True Matched:False	0	2	true	false	Wrong	false	n/a	n-backMarkers
583.284829	0.004000	dropped_samples	10072.880257	Dropped 1 samples	n/a	n/a	n/a	n/a	n/a	n/a	1	UoHDataOffsetStream
584.084346	0.000000	2-back	10073.679775	Steps:2 KeyPress:True Matched:True	1	2	true	true	Correct	false	n/a	n-backMarkers
584.896206	0.008000	dropped_samples	10074.491634	Dropped 2 samples	n/a	n/a	n/a	n/a	n/a	n/a	2	UoHDataOffsetStream
585.785304	0.000000	2-back	10075.380733	Steps:2 KeyPress:False Matched:False	1	2	false	false	Correct	false	n/a	n-backMarkers
587.318030	0.004000	dropped_samples	10076.913459	Dropped 1 samples	n/a	n/a	n/a	n/a	n/a	n/a	1	UoHDataOffsetStream
587.486289	0.000000	2-back	10077.081718	Steps:2 KeyPress:False Matched:False	1	2	false	false	Correct	false	n/a	n-backMarkers
589.187332	0.000000	2-back	10078.782760	Steps:2 KeyPress:True Matched:False	0	2	true	false	Wrong	false	n/a	n-backMarkers
590.887334	0.000000	2-back	10080.482763	Steps:2 KeyPress:True Matched:False	0	2	true	false	Wrong	false	n/a	n-backMarkers
592.454784	0.004000	dropped_samples	10082.050212	Dropped 1 samples	n/a	n/a	n/a	n/a	n/a	n/a	1	UoHDataOffsetStream
592.589312	0.000000	2-back	10082.184740	Steps:2 KeyPress:False Matched:True	0	2	false	true	Wrong	false	n/a	n-backMarkers
592.791677	0.008000	dropped_samples	10082.387105	Dropped 2 samples	n/a	n/a	n/a	n/a	n/a	n/a	2	UoHDataOffsetStream
594.290250	0.000000	2-back	10083.885679	Steps:2 KeyPress:True Matched:False	0	2	true	false	Wrong	false	n/a	n-backMarkers
595.991264	0.000000	2-back	10085.586692	Steps:2 KeyPress:False Matched:True	0	2	false	true	Wrong	false	n/a	n-backMarkers
597.692463	0.000000	2-back	10087.287891	Steps:2 KeyPress:False Matched:False	1	2	false	false	Correct	false	n/a	n-backMarkers
598.455756	0.004000	dropped_samples	10088.051184	Dropped 1 samples	n/a	n/a	n/a	n/a	n/a	n/a	1	UoHDataOffsetStream
598.621769	0.012000	dropped_samples	10088.217197	Dropped 3 samples	n/a	n/a	n/a	n/a	n/a	n/a	3	UoHDataOffsetStream
599.393046	0.000000	2-back	10088.988474	Steps:2 KeyPress:False Matched:False	1	2	false	false	Correct	false	n/a	n-backMarkers
600.492242	0.004000	dropped_samples	10090.087671	Dropped 1 samples	n/a	n/a	n/a	n/a	n/a	n/a	1	UoHDataOffsetStream
601.094202	0.000000	2-back	10090.689630	Steps:2 KeyPress:True Matched:False	0	2	true	false	Wrong	false	n/a	n-backMarkers
602.513396	0.004000	dropped_samples	10092.108824	Dropped 1 samples	n/a	n/a	n/a	n/a	n/a	n/a	1	UoHDataOffsetStream
602.796472	0.000000	2-back	10092.391901	Steps:2 KeyPress:False Matched:True	0	2	false	true	Wrong	false	n/a	n-backMarkers
603.641327	0.004000	dropped_samples	10093.236755	Dropped 1 samples	n/a	n/a	n/a	n/a	n/a	n/a	1	UoHDataOffsetStream
604.497149	0.000000	2-back	10094.092577	Steps:2 KeyPress:False Matched:False	1	2	false	false	Correct	false	n/a	n-backMarkers
605.989951	0.004000	dropped_samples	10095.585379	Dropped 1 samples	n/a	n/a	n/a	n/a	n/a	n/a	1	UoHDataOffsetStream
606.197255	0.000000	2-back	10095.792683	Steps:2 KeyPress:False Matched:False	1	2	false	false	Correct	false	n/a	n-backMarkers
606.805387	0.008000	dropped_samples	10096.400815	Dropped 2 samples	n/a	n/a	n/a	n/a	n/a	n/a	2	UoHDataOffsetStream
607.898164	0.000000	2-back	10097.493593	Steps:2 KeyPress:False Matched:False	1	2	false	false	Correct	false	n/a	n-backMarkers
609.599132	0.000000	2-back	10099.194560	Steps:2 KeyPress:False Matched:False	1	2	false	false	Correct	false	n/a	n-backMarkers
610.678004	0.004000	dropped_samples	10100.273432	Dropped 1 samples	n/a	n/a	n/a	n/a	n/a	n/a	1	UoHDataOffsetStream
610.721429	0.012000	dropped_samples	10100.316857	Dropped 3 samples	n/a	n/a	n/a	n/a	n/a	n/a	3	UoHDataOffsetStream
611.300359	0.000000	2-back	10100.895788	Steps:2 KeyPress:False Matched:True	0	2	false	true	Wrong	false	n/a	n-backMarkers
612.518305	0.004000	dropped_samples	10102.113733	Dropped 1 samples	n/a	n/a	n/a	n/a	n/a	n/a	1	UoHDataOffsetStream
613.001454	0.000000	2-back	10102.596882	Steps:2 KeyPress:False Matched:False	1	2	false	false	Correct	false	n/a	n-backMarkers
613.480239	0.012000	dropped_samples	10103.075667	Dropped 3 samples	n/a	n/a	n/a	n/a	n/a	n/a	3	UoHDataOffsetStream
613.861035	0.012000	dropped_samples	10103.456463	Dropped 3 samples	n/a	n/a	n/a	n/a	n/a	n/a	3	UoHDataOffsetStream
614.656976	0.004000	dropped_samples	10104.252404	Dropped 1 samples	n/a	n/a	n/a	n/a	n/a	n/a	1	UoHDataOffsetStream
614.702277	0.000000	2-back	10104.297706	Steps:2 KeyPress:False Matched:False	1	2	false	false	Correct	false	n/a	n-backMarkers
615.843765	0.012000	dropped_samples	10105.439193	Dropped 3 samples	n/a	n/a	n/a	n/a	n/a	n/a	3	UoHDataOffsetStream
615.877753	0.004000	dropped_samples	10105.473181	Dropped 1 samples	n/a	n/a	n/a	n/a	n/a	n/a	1	UoHDataOffsetStream
616.404227	0.000000	2-back	10105.999655	Steps:2 KeyPress:False Matched:False	1	2	false	false	Correct	false	n/a	n-backMarkers
618.104398	0.000000	2-back	10107.699826	Steps:2 KeyPress:False Matched:False	1	2	false	false	Correct	false	n/a	n-backMarkers
619.696112	0.004000	dropped_samples	10109.291540	Dropped 1 samples	n/a	n/a	n/a	n/a	n/a	n/a	1	UoHDataOffsetStream
619.805288	0.000000	2-back	10109.400717	Steps:2 KeyPress:False Matched:False	1	2	false	false	Correct	false	n/a	n-backMarkers
619.813296	0.004000	dropped_samples	10109.408725	Dropped 1 samples	n/a	n/a	n/a	n/a	n/a	n/a	1	UoHDataOffsetStream
619.935631	0.004000	dropped_samples	10109.531059	Dropped 1 samples	n/a	n/a	n/a	n/a	n/a	n/a	1	UoHDataOffsetStream
620.101327	0.004000	dropped_samples	10109.696755	Dropped 1 samples	n/a	n/a	n/a	n/a	n/a	n/a	1	UoHDataOffsetStream
620.535899	0.004000	dropped_samples	10110.131328	Dropped 1 samples	n/a	n/a	n/a	n/a	n/a	n/a	1	UoHDataOffsetStream
621.712672	0.004000	dropped_samples	10111.308100	Dropped 1 samples	n/a	n/a	n/a	n/a	n/a	n/a	1	UoHDataOffsetStream
623.729238	0.004000	dropped_samples	10113.324666	Dropped 1 samples	n/a	n/a	n/a	n/a	n/a	n/a	1	UoHDataOffsetStream
625.740976	0.004000	dropped_samples	10115.336404	Dropped 1 samples	n/a	n/a	n/a	n/a	n/a	n/a	1	UoHDataOffsetStream
627.401132	0.004000	dropped_samples	10116.996561	Dropped 1 samples	n/a	n/a	n/a	n/a	n/a	n/a	1	UoHDataOffsetStream
628.265407	0.004000	dropped_samples	10117.860835	Dropped 1 samples	n/a	n/a	n/a	n/a	n/a	n/a	1	UoHDataOffsetStream
628.511161	0.000000	3-back	10118.106589	Steps:3 KeyPress:False Matched:False	1	3	false	false	Correct	false	n/a	n-backMarkers
629.681440	0.004000	dropped_samples	10119.276868	Dropped 1 samples	n/a	n/a	n/a	n/a	n/a	n/a	1	UoHDataOffsetStream
630.212781	0.000000	3-back	10119.808209	Steps:3 KeyPress:False Matched:False	1	3	false	false	Correct	false	n/a	n-backMarkers
630.784942	0.008000	dropped_samples	10120.380370	Dropped 2 samples	n/a	n/a	n/a	n/a	n/a	n/a	2	UoHDataOffsetStream
631.912621	0.000000	3-back	10121.508050	Steps:3 KeyPress:False Matched:False	1	3	false	false	Correct	false	n/a	n-backMarkers
631.937287	0.004000	dropped_samples	10121.532716	Dropped 1 samples	n/a	n/a	n/a	n/a	n/a	n/a	1	UoHDataOffsetStream
633.613150	0.000000	3-back	10123.208578	Steps:3 KeyPress:False Matched:False	1	3	false	false	Correct	false	n/a	n-backMarkers
635.314103	0.000000	3-back	10124.909531	Steps:3 KeyPress:False Matched:False	1	3	false	false	Correct	false	n/a	n-backMarkers
635.389454	0.004000	dropped_samples	10124.984882	Dropped 1 samples	n/a	n/a	n/a	n/a	n/a	n/a	1	UoHDataOffsetStream
637.015233	0.000000	3-back	10126.610662	Steps:3 KeyPress:False Matched:True	0	3	false	true	Wrong	false	n/a	n-backMarkers
637.742993	0.012000	dropped_samples	10127.338421	Dropped 3 samples	n/a	n/a	n/a	n/a	n/a	n/a	3	UoHDataOffsetStream
638.717246	0.000000	3-back	10128.312675	Steps:3 KeyPress:True Matched:False	0	3	true	false	Wrong	false	n/a	n-backMarkers
640.096487	0.004000	dropped_samples	10129.691915	Dropped 1 samples	n/a	n/a	n/a	n/a	n/a	n/a	1	UoHDataOffsetStream
640.418434	0.000000	3-back	10130.013862	Steps:3 KeyPress:False Matched:False	1	3	false	false	Correct	false	n/a	n-backMarkers
641.849426	0.004000	dropped_samples	10131.444854	Dropped 1 samples	n/a	n/a	n/a	n/a	n/a	n/a	1	UoHDataOffsetStream
642.119229	0.000000	3-back	10131.714657	Steps:3 KeyPress:False Matched:False	1	3	false	false	Correct	false	n/a	n-backMarkers
643.821000	0.000000	3-back	10133.416428	Steps:3 KeyPress:False Matched:False	1	3	false	false	Correct	false	n/a	n-backMarkers
645.013481	0.004000	dropped_samples	10134.608910	Dropped 1 samples	n/a	n/a	n/a	n/a	n/a	n/a	1	UoHDataOffsetStream
645.522050	0.000000	3-back	10135.117478	Steps:3 KeyPress:False Matched:False	1	3	false	false	Correct	false	n/a	n-backMarkers
646.912919	0.004000	dropped_samples	10136.508347	Dropped 1 samples	n/a	n/a	n/a	n/a	n/a	n/a	1	UoHDataOffsetStream
647.223227	0.000000	3-back	10136.818655	Steps:3 KeyPress:False Matched:False	1	3	false	false	Correct	false	n/a	n-backMarkers
648.924577	0.000000	3-back	10138.520005	Steps:3 KeyPress:False Matched:False	1	3	false	false	Correct	false	n/a	n-backMarkers
649.505793	0.004000	dropped_samples	10139.101221	Dropped 1 samples	n/a	n/a	n/a	n/a	n/a	n/a	1	UoHDataOffsetStream
650.624646	0.000000	3-back	10140.220074	Steps:3 KeyPress:False Matched:False	1	3	false	false	Correct	false	n/a	n-backMarkers
651.688344	0.004000	dropped_samples	10141.283772	Dropped 1 samples	n/a	n/a	n/a	n/a	n/a	n/a	1	UoHDataOffsetStream
651.976408	0.004000	dropped_samples	10141.571837	Dropped 1 samples	n/a	n/a	n/a	n/a	n/a	n/a	1	UoHDataOffsetStream
652.324721	0.000000	3-back	10141.920149	Steps:3 KeyPress:True Matched:False	0	3	true	false	Wrong	false	n/a	n-backMarkers
654.025306	0.000000	3-back	10143.620735	Steps:3 KeyPress:False Matched:True	0	3	false	true	Wrong	false	n/a	n-backMarkers
654.520405	0.012000	dropped_samples	10144.115833	Dropped 3 samples	n/a	n/a	n/a	n/a	n/a	n/a	3	UoHDataOffsetStream
654.998882	0.004000	dropped_samples	10144.594311	Dropped 1 samples	n/a	n/a	n/a	n/a	n/a	n/a	1	UoHDataOffsetStream
655.433459	0.004000	dropped_samples	10145.028887	Dropped 1 samples	n/a	n/a	n/a	n/a	n/a	n/a	1	UoHDataOffsetStream
655.726979	0.000000	3-back	10145.322407	Steps:3 KeyPress:False Matched:False	1	3	false	false	Correct	false	n/a	n-backMarkers
656.009619	0.004000	dropped_samples	10145.605047	Dropped 1 samples	n/a	n/a	n/a	n/a	n/a	n/a	1	UoHDataOffsetStream
656.991252	0.012000	dropped_samples	10146.586680	Dropped 3 samples	n/a	n/a	n/a	n/a	n/a	n/a	3	UoHDataOffsetStream
657.427209	0.000000	3-back	10147.022637	Steps:3 KeyPress:False Matched:False	1	3	false	false	Correct	false	n/a	n-backMarkers
659.128278	0.000000	3-back	10148.723706	Steps:3 KeyPress:False Matched:False	1	3	false	false	Correct	false	n/a	n-backMarkers
660.829184	0.000000	3-back	10150.424612	Steps:3 KeyPress:False Matched:False	1	3	false	false	Correct	false	n/a	n-backMarkers
661.864155	0.004000	dropped_samples	10151.459583	Dropped 1 samples	n/a	n/a	n/a	n/a	n/a	n/a	1	UoHDataOffsetStream
662.030097	0.004000	dropped_samples	10151.625525	Dropped 1 samples	n/a	n/a	n/a	n/a	n/a	n/a	1	UoHDataOffsetStream
662.127813	0.004000	dropped_samples	10151.723241	Dropped 1 samples	n/a	n/a	n/a	n/a	n/a	n/a	1	UoHDataOffsetStream
662.530271	0.000000	3-back	10152.125700	Steps:3 KeyPress:False Matched:True	0	3	false	true	Wrong	false	n/a	n-backMarkers
662.581864	0.004000	dropped_samples	10152.177292	Dropped 1 samples	n/a	n/a	n/a	n/a	n/a	n/a	1	UoHDataOffsetStream
664.231161	0.000000	3-back	10153.826589	Steps:3 KeyPress:False Matched:True	0	3	false	true	Wrong	false	n/a	n-backMarkers
664.574087	0.008000	dropped_samples	10154.169516	Dropped 2 samples	n/a	n/a	n/a	n/a	n/a	n/a	2	UoHDataOffsetStream
665.931207	0.000000	3-back	10155.526635	Steps:3 KeyPress:False Matched:False	1	3	false	false	Correct	false	n/a	n-backMarkers
666.400262	0.004000	dropped_samples	10155.995690	Dropped 1 samples	n/a	n/a	n/a	n/a	n/a	n/a	1	UoHDataOffsetStream
667.631698	0.000000	3-back	10157.227126	Steps:3 KeyPress:False Matched:False	1	3	false	false	Correct	false	n/a	n-backMarkers
669.332273	0.000000	3-back	10158.927702	Steps:3 KeyPress:True Matched:False	0	3	true	false	Wrong	false	n/a	n-backMarkers
669.759641	0.004000	dropped_samples	10159.355070	Dropped 1 samples	n/a	n/a	n/a	n/a	n/a	n/a	1	UoHDataOffsetStream
670.814336	0.004000	dropped_samples	10160.409764	Dropped 1 samples	n/a	n/a	n/a	n/a	n/a	n/a	1	UoHDataOffsetStream
671.034192	0.000000	3-back	10160.629620	Steps:3 KeyPress:False Matched:False	1	3	false	false	Correct	false	n/a	n-backMarkers
672.735210	0.000000	3-back	10162.330638	Steps:3 KeyPress:False Matched:False	1	3	false	false	Correct	false	n/a	n-backMarkers
674.436328	0.000000	3-back	10164.031756	Steps:3 KeyPress:False Matched:False	1	3	false	false	Correct	false	n/a	n-backMarkers
676.137252	0.000000	3-back	10165.732680	Steps:3 KeyPress:True Matched:False	0	3	true	false	Wrong	false	n/a	n-backMarkers
677.838240	0.000000	3-back	10167.433668	Steps:3 KeyPress:False Matched:True	0	3	false	true	Wrong	false	n/a	n-backMarkers
679.193263	0.004000	dropped_samples	10168.788691	Dropped 1 samples	n/a	n/a	n/a	n/a	n/a	n/a	1	UoHDataOffsetStream
679.538223	0.000000	3-back	10169.133651	Steps:3 KeyPress:True Matched:False	0	3	true	false	Wrong	false	n/a	n-backMarkers
681.239059	0.000000	3-back	10170.834487	Steps:3 KeyPress:False Matched:False	1	3	false	false	Correct	false	n/a	n-backMarkers
681.302647	0.004000	dropped_samples	10170.898076	Dropped 1 samples	n/a	n/a	n/a	n/a	n/a	n/a	1	UoHDataOffsetStream
681.541874	0.020000	dropped_samples	10171.137302	Dropped 5 samples	n/a	n/a	n/a	n/a	n/a	n/a	5	UoHDataOffsetStream
682.940090	0.000000	3-back	10172.535518	Steps:3 KeyPress:False Matched:False	1	3	false	false	Correct	false	n/a	n-backMarkers
683.202060	0.004000	dropped_samples	10172.797488	Dropped 1 samples	n/a	n/a	n/a	n/a	n/a	n/a	1	UoHDataOffsetStream
684.641080	0.000000	3-back	10174.236508	Steps:3 KeyPress:True Matched:False	0	3	true	false	Wrong	false	n/a	n-backMarkers
685.335861	0.004000	dropped_samples	10174.931290	Dropped 1 samples	n/a	n/a	n/a	n/a	n/a	n/a	1	UoHDataOffsetStream
686.341723	0.000000	3-back	10175.937152	Steps:3 KeyPress:True Matched:False	0	3	true	false	Wrong	false	n/a	n-backMarkers
686.610298	0.004000	dropped_samples	10176.205726	Dropped 1 samples	n/a	n/a	n/a	n/a	n/a	n/a	1	UoHDataOffsetStream
688.042126	0.000000	3-back	10177.637555	Steps:3 KeyPress:False Matched:False	1	3	false	false	Correct	false	n/a	n-backMarkers
688.407226	0.004000	dropped_samples	10178.002654	Dropped 1 samples	n/a	n/a	n/a	n/a	n/a	n/a	1	UoHDataOffsetStream
689.744501	0.000000	3-back	10179.339930	Steps:3 KeyPress:False Matched:True	0	3	false	true	Wrong	false	n/a	n-backMarkers
691.312439	0.004000	dropped_samples	10180.907867	Dropped 1 samples	n/a	n/a	n/a	n/a	n/a	n/a	1	UoHDataOffsetStream
691.444340	0.000000	3-back	10181.039768	Steps:3 KeyPress:False Matched:False	1	3	false	false	Correct	false	n/a	n-backMarkers
693.144450	0.000000	3-back	10182.739879	Steps:3 KeyPress:False Matched:False	1	3	false	false	Correct	false	n/a	n-backMarkers
693.470677	0.004000	dropped_samples	10183.066105	Dropped 1 samples	n/a	n/a	n/a	n/a	n/a	n/a	1	UoHDataOffsetStream
694.845231	0.000000	3-back	10184.440659	Steps:3 KeyPress:False Matched:False	1	3	false	false	Correct	false	n/a	n-backMarkers
696.498017	0.004000	dropped_samples	10186.093445	Dropped 1 samples	n/a	n/a	n/a	n/a	n/a	n/a	1	UoHDataOffsetStream
696.545955	0.000000	3-back	10186.141384	Steps:3 KeyPress:False Matched:False	1	3	false	false	Correct	false	n/a	n-backMarkers
697.914031	0.004000	dropped_samples	10187.509459	Dropped 1 samples	n/a	n/a	n/a	n/a	n/a	n/a	1	UoHDataOffsetStream
698.247045	0.000000	3-back	10187.842473	Steps:3 KeyPress:False Matched:False	1	3	false	false	Correct	false	n/a	n-backMarkers
698.753820	0.008000	dropped_samples	10188.349248	Dropped 2 samples	n/a	n/a	n/a	n/a	n/a	n/a	2	UoHDataOffsetStream
698.944298	0.004000	dropped_samples	10188.539726	Dropped 1 samples	n/a	n/a	n/a	n/a	n/a	n/a	1	UoHDataOffsetStream
699.948439	0.000000	3-back	10189.543867	Steps:3 KeyPress:False Matched:True	0	3	false	true	Wrong	false	n/a	n-backMarkers
701.648267	0.000000	3-back	10191.243695	Steps:3 KeyPress:False Matched:False	1	3	false	false	Correct	false	n/a	n-backMarkers
703.349046	0.000000	3-back	10192.944474	Steps:3 KeyPress:False Matched:False	1	3	false	false	Correct	false	n/a	n-backMarkers
704.920889	0.004000	dropped_samples	10194.516317	Dropped 1 samples	n/a	n/a	n/a	n/a	n/a	n/a	1	UoHDataOffsetStream
705.049367	0.000000	3-back	10194.644796	Steps:3 KeyPress:True Matched:True	1	3	true	true	Correct	false	n/a	n-backMarkers
706.750070	0.000000	3-back	10196.345498	Steps:3 KeyPress:False Matched:True	0	3	false	true	Wrong	false	n/a	n-backMarkers
707.010725	0.012000	dropped_samples	10196.606153	Dropped 3 samples	n/a	n/a	n/a	n/a	n/a	n/a	3	UoHDataOffsetStream
708.451016	0.000000	3-back	10198.046444	Steps:3 KeyPress:False Matched:False	1	3	false	false	Correct	false	n/a	n-backMarkers
709.671869	0.004000	dropped_samples	10199.267297	Dropped 1 samples	n/a	n/a	n/a	n/a	n/a	n/a	1	UoHDataOffsetStream
710.151514	0.000000	3-back	10199.746942	Steps:3 KeyPress:False Matched:False	1	3	false	false	Correct	false	n/a	n-backMarkers
710.721893	0.004000	dropped_samples	10200.317321	Dropped 1 samples	n/a	n/a	n/a	n/a	n/a	n/a	1	UoHDataOffsetStream
711.278324	0.004000	dropped_samples	10200.873752	Dropped 1 samples	n/a	n/a	n/a	n/a	n/a	n/a	1	UoHDataOffsetStream
711.615939	0.012000	dropped_samples	10201.211368	Dropped 3 samples	n/a	n/a	n/a	n/a	n/a	n/a	3	UoHDataOffsetStream
711.852175	0.000000	3-back	10201.447604	Steps:3 KeyPress:False Matched:False	1	3	false	false	Correct	false	n/a	n-backMarkers
712.455038	0.008000	dropped_samples	10202.050467	Dropped 2 samples	n/a	n/a	n/a	n/a	n/a	n/a	2	UoHDataOffsetStream
712.625971	0.004000	dropped_samples	10202.221399	Dropped 1 samples	n/a	n/a	n/a	n/a	n/a	n/a	1	UoHDataOffsetStream
713.552751	0.000000	3-back	10203.148179	Steps:3 KeyPress:False Matched:False	1	3	false	false	Correct	false	n/a	n-backMarkers
714.759809	0.004000	dropped_samples	10204.355237	Dropped 1 samples	n/a	n/a	n/a	n/a	n/a	n/a	1	UoHDataOffsetStream
715.253570	0.000000	3-back	10204.848998	Steps:3 KeyPress:True Matched:False	0	3	true	false	Wrong	false	n/a	n-backMarkers
716.954072	0.000000	3-back	10206.549501	Steps:3 KeyPress:False Matched:False	1	3	false	false	Correct	false	n/a	n-backMarkers
718.655175	0.000000	3-back	10208.250603	Steps:3 KeyPress:False Matched:True	0	3	false	true	Wrong	false	n/a	n-backMarkers
718.817404	0.004000	dropped_samples	10208.412832	Dropped 1 samples	n/a	n/a	n/a	n/a	n/a	n/a	1	UoHDataOffsetStream
720.356209	0.000000	3-back	10209.951637	Steps:3 KeyPress:False Matched:False	1	3	false	false	Correct	false	n/a	n-backMarkers
722.056255	0.000000	3-back	10211.651684	Steps:3 KeyPress:True Matched:False	0	3	true	false	Wrong	false	n/a	n-backMarkers
722.704098	0.004000	dropped_samples	10212.299527	Dropped 1 samples	n/a	n/a	n/a	n/a	n/a	n/a	1	UoHDataOffsetStream
723.757005	0.000000	3-back	10213.352433	Steps:3 KeyPress:False Matched:True	0	3	false	true	Wrong	false	n/a	n-backMarkers
725.458871	0.000000	3-back	10215.054299	Steps:3 KeyPress:False Matched:False	1	3	false	false	Correct	false	n/a	n-backMarkers
725.848652	0.004000	dropped_samples	10215.444081	Dropped 1 samples	n/a	n/a	n/a	n/a	n/a	n/a	1	UoHDataOffsetStream
726.854600	0.004000	dropped_samples	10216.450029	Dropped 1 samples	n/a	n/a	n/a	n/a	n/a	n/a	1	UoHDataOffsetStream
727.159093	0.000000	3-back	10216.754521	Steps:3 KeyPress:False Matched:False	1	3	false	false	Correct	false	n/a	n-backMarkers
728.860134	0.000000	3-back	10218.455562	Steps:3 KeyPress:False Matched:False	1	3	false	false	Correct	false	n/a	n-backMarkers
728.895801	0.004000	dropped_samples	10218.491230	Dropped 1 samples	n/a	n/a	n/a	n/a	n/a	n/a	1	UoHDataOffsetStream
730.560262	0.000000	3-back	10220.155691	Steps:3 KeyPress:False Matched:False	1	3	false	false	Correct	false	n/a	n-backMarkers
732.260951	0.000000	3-back	10221.856379	Steps:3 KeyPress:False Matched:False	1	3	false	false	Correct	false	n/a	n-backMarkers
733.915198	0.004000	dropped_samples	10223.510626	Dropped 1 samples	n/a	n/a	n/a	n/a	n/a	n/a	1	UoHDataOffsetStream
733.962081	0.000000	3-back	10223.557509	Steps:3 KeyPress:False Matched:False	1	3	false	false	Correct	false	n/a	n-backMarkers
735.663233	0.000000	3-back	10225.258662	Steps:3 KeyPress:False Matched:True	0	3	false	true	Wrong	false	n/a	n-backMarkers
737.364407	0.000000	3-back	10226.959835	Steps:3 KeyPress:True Matched:False	0	3	true	false	Wrong	false	n/a	n-backMarkers
738.568387	0.004000	dropped_samples	10228.163815	Dropped 1 samples	n/a	n/a	n/a	n/a	n/a	n/a	1	UoHDataOffsetStream
739.064191	0.000000	3-back	10228.659619	Steps:3 KeyPress:False Matched:False	1	3	false	false	Correct	false	n/a	n-backMarkers
739.506134	0.004000	dropped_samples	10229.101562	Dropped 1 samples	n/a	n/a	n/a	n/a	n/a	n/a	1	UoHDataOffsetStream
739.579148	0.004000	dropped_samples	10229.174576	Dropped 1 samples	n/a	n/a	n/a	n/a	n/a	n/a	1	UoHDataOffsetStream
740.764926	0.000000	3-back	10230.360354	Steps:3 KeyPress:False Matched:False	1	3	false	false	Correct	false	n/a	n-backMarkers
742.465141	0.000000	3-back	10232.060569	Steps:3 KeyPress:False Matched:False	1	3	false	false	Correct	false	n/a	n-backMarkers
742.650484	0.004000	dropped_samples	10232.245912	Dropped 1 samples	n/a	n/a	n/a	n/a	n/a	n/a	1	UoHDataOffsetStream
742.938557	0.004000	dropped_samples	10232.533985	Dropped 1 samples	n/a	n/a	n/a	n/a	n/a	n/a	1	UoHDataOffsetStream
744.166171	0.000000	3-back	10233.761599	Steps:3 KeyPress:False Matched:False	1	3	false	false	Correct	false	n/a	n-backMarkers
744.955130	0.004000	dropped_samples	10234.550559	Dropped 1 samples	n/a	n/a	n/a	n/a	n/a	n/a	1	UoHDataOffsetStream
745.023513	0.004000	dropped_samples	10234.618942	Dropped 1 samples	n/a	n/a	n/a	n/a	n/a	n/a	1	UoHDataOffsetStream
745.867041	0.000000	3-back	10235.462470	Steps:3 KeyPress:True Matched:True	1	3	true	true	Correct	false	n/a	n-backMarkers
747.568187	0.000000	3-back	10237.163616	Steps:3 KeyPress:False Matched:False	1	3	false	false	Correct	false	n/a	n-backMarkers
749.268386	0.000000	3-back	10238.863814	Steps:3 KeyPress:False Matched:False	1	3	false	false	Correct	false	n/a	n-backMarkers
750.969153	0.000000	3-back	10240.564582	Steps:3 KeyPress:False Matched:False	1	3	false	false	Correct	false	n/a	n-backMarkers
752.225645	0.004000	dropped_samples	10241.821074	Dropped 1 samples	n/a	n/a	n/a	n/a	n/a	n/a	1	UoHDataOffsetStream
752.670175	0.000000	3-back	10242.265604	Steps:3 KeyPress:False Matched:True	0	3	false	true	Wrong	false	n/a	n-backMarkers
753.114345	0.004000	dropped_samples	10242.709773	Dropped 1 samples	n/a	n/a	n/a	n/a	n/a	n/a	1	UoHDataOffsetStream
754.003031	0.004000	dropped_samples	10243.598460	Dropped 1 samples	n/a	n/a	n/a	n/a	n/a	n/a	1	UoHDataOffsetStream
754.371209	0.000000	3-back	10243.966637	Steps:3 KeyPress:True Matched:False	0	3	true	false	Wrong	false	n/a	n-backMarkers
756.071314	0.000000	3-back	10245.666742	Steps:3 KeyPress:False Matched:False	1	3	false	false	Correct	false	n/a	n-backMarkers
756.112360	0.004000	dropped_samples	10245.707788	Dropped 1 samples	n/a	n/a	n/a	n/a	n/a	n/a	1	UoHDataOffsetStream
757.771554	0.000000	3-back	10247.366982	Steps:3 KeyPress:False Matched:False	1	3	false	false	Correct	false	n/a	n-backMarkers
758.129012	0.004000	dropped_samples	10247.724440	Dropped 1 samples	n/a	n/a	n/a	n/a	n/a	n/a	1	UoHDataOffsetStream
758.319456	0.004000	dropped_samples	10247.914884	Dropped 1 samples	n/a	n/a	n/a	n/a	n/a	n/a	1	UoHDataOffsetStream
758.392685	0.004000	dropped_samples	10247.988113	Dropped 1 samples	n/a	n/a	n/a	n/a	n/a	n/a	1	UoHDataOffsetStream
759.134870	0.004000	dropped_samples	10248.730298	Dropped 1 samples	n/a	n/a	n/a	n/a	n/a	n/a	1	UoHDataOffsetStream
759.452599	0.004000	dropped_samples	10249.048027	Dropped 1 samples	n/a	n/a	n/a	n/a	n/a	n/a	1	UoHDataOffsetStream
759.472068	0.000000	3-back	10249.067497	Steps:3 KeyPress:True Matched:False	0	3	true	false	Wrong	false	n/a	n-backMarkers
760.550896	0.004000	dropped_samples	10250.146324	Dropped 1 samples	n/a	n/a	n/a	n/a	n/a	n/a	1	UoHDataOffsetStream
761.172199	0.000000	3-back	10250.767628	Steps:3 KeyPress:False Matched:False	1	3	false	false	Correct	false	n/a	n-backMarkers
762.186645	0.004000	dropped_samples	10251.782073	Dropped 1 samples	n/a	n/a	n/a	n/a	n/a	n/a	1	UoHDataOffsetStream
762.873955	0.000000	3-back	10252.469383	Steps:3 KeyPress:False Matched:False	1	3	false	false	Correct	false	n/a	n-backMarkers
764.575099	0.000000	3-back	10254.170527	Steps:3 KeyPress:False Matched:False	1	3	false	false	Correct	false	n/a	n-backMarkers
766.276294	0.000000	3-back	10255.871723	Steps:3 KeyPress:True Matched:False	0	3	true	false	Wrong	false	n/a	n-backMarkers
767.225663	0.004000	dropped_samples	10256.821091	Dropped 1 samples	n/a	n/a	n/a	n/a	n/a	n/a	1	UoHDataOffsetStream
767.298966	0.004000	dropped_samples	10256.894394	Dropped 1 samples	n/a	n/a	n/a	n/a	n/a	n/a	1	UoHDataOffsetStream
767.777481	0.004000	dropped_samples	10257.372909	Dropped 1 samples	n/a	n/a	n/a	n/a	n/a	n/a	1	UoHDataOffsetStream
767.977709	0.000000	3-back	10257.573137	Steps:3 KeyPress:False Matched:True	0	3	false	true	Wrong	false	n/a	n-backMarkers
768.231621	0.004000	dropped_samples	10257.827049	Dropped 1 samples	n/a	n/a	n/a	n/a	n/a	n/a	1	UoHDataOffsetStream
769.679041	0.000000	3-back	10259.274469	Steps:3 KeyPress:False Matched:False	1	3	false	false	Correct	false	n/a	n-backMarkers
771.258943	0.004000	dropped_samples	10260.854371	Dropped 1 samples	n/a	n/a	n/a	n/a	n/a	n/a	1	UoHDataOffsetStream
771.380947	0.000000	3-back	10260.976376	Steps:3 KeyPress:False Matched:False	1	3	false	false	Correct	false	n/a	n-backMarkers
773.081970	0.000000	3-back	10262.677398	Steps:3 KeyPress:False Matched:False	1	3	false	false	Correct	false	n/a	n-backMarkers
774.782123	0.000000	3-back	10264.377551	Steps:3 KeyPress:False Matched:False	1	3	false	false	Correct	false	n/a	n-backMarkers
776.482159	0.000000	3-back	10266.077588	Steps:3 KeyPress:False Matched:False	1	3	false	false	Correct	false	n/a	n-backMarkers
777.425902	0.004000	dropped_samples	10267.021330	Dropped 1 samples	n/a	n/a	n/a	n/a	n/a	n/a	1	UoHDataOffsetStream
778.183496	0.000000	3-back	10267.778925	Steps:3 KeyPress:True Matched:False	0	3	true	false	Wrong	false	n/a	n-backMarkers
779.885098	0.000000	3-back	10269.480526	Steps:3 KeyPress:False Matched:False	1	3	false	false	Correct	false	n/a	n-backMarkers
780.355634	0.012000	dropped_samples	10269.951062	Dropped 3 samples	n/a	n/a	n/a	n/a	n/a	n/a	3	UoHDataOffsetStream
781.239409	0.004000	dropped_samples	10270.834838	Dropped 1 samples	n/a	n/a	n/a	n/a	n/a	n/a	1	UoHDataOffsetStream
781.586988	0.000000	3-back	10271.182416	Steps:3 KeyPress:False Matched:False	1	3	false	false	Correct	false	n/a	n-backMarkers
783.287220	0.000000	3-back	10272.882648	Steps:3 KeyPress:False Matched:False	1	3	false	false	Correct	false	n/a	n-backMarkers
784.242381	0.004000	dropped_samples	10273.837809	Dropped 1 samples	n/a	n/a	n/a	n/a	n/a	n/a	1	UoHDataOffsetStream
784.988944	0.000000	3-back	10274.584372	Steps:3 KeyPress:True Matched:False	0	3	true	false	Wrong	false	n/a	n-backMarkers
785.682754	0.008000	dropped_samples	10275.278182	Dropped 2 samples	n/a	n/a	n/a	n/a	n/a	n/a	2	UoHDataOffsetStream
786.690042	0.000000	3-back	10276.285470	Steps:3 KeyPress:False Matched:False	1	3	false	false	Correct	false	n/a	n-backMarkers
786.761893	0.004000	dropped_samples	10276.357321	Dropped 1 samples	n/a	n/a	n/a	n/a	n/a	n/a	1	UoHDataOffsetStream
787.411327	0.004000	dropped_samples	10277.006755	Dropped 1 samples	n/a	n/a	n/a	n/a	n/a	n/a	1	UoHDataOffsetStream
787.792159	0.004000	dropped_samples	10277.387587	Dropped 1 samples	n/a	n/a	n/a	n/a	n/a	n/a	1	UoHDataOffsetStream
788.391106	0.000000	3-back	10277.986534	Steps:3 KeyPress:False Matched:False	1	3	false	false	Correct	false	n/a	n-backMarkers
788.520376	0.004000	dropped_samples	10278.115804	Dropped 1 samples	n/a	n/a	n/a	n/a	n/a	n/a	1	UoHDataOffsetStream
788.558762	0.012000	dropped_samples	10278.154190	Dropped 3 samples	n/a	n/a	n/a	n/a	n/a	n/a	3	UoHDataOffsetStream
790.092382	0.000000	3-back	10279.687810	Steps:3 KeyPress:False Matched:False	1	3	false	false	Correct	false	n/a	n-backMarkers
791.793974	0.000000	3-back	10281.389403	Steps:3 KeyPress:False Matched:False	1	3	false	false	Correct	false	n/a	n-backMarkers
791.874208	0.012000	dropped_samples	10281.469636	Dropped 3 samples	n/a	n/a	n/a	n/a	n/a	n/a	3	UoHDataOffsetStream
792.303930	0.004000	dropped_samples	10281.899358	Dropped 1 samples	n/a	n/a	n/a	n/a	n/a	n/a	1	UoHDataOffsetStream
793.494987	0.000000	3-back	10283.090415	Steps:3 KeyPress:False Matched:True	0	3	false	true	Wrong	false	n/a	n-backMarkers
795.195311	0.000000	3-back	10284.790739	Steps:3 KeyPress:False Matched:False	1	3	false	false	Correct	false	n/a	n-backMarkers
796.896020	0.000000	3-back	10286.491449	Steps:3 KeyPress:False Matched:False	1	3	false	false	Correct	false	n/a	n-backMarkers
797.465045	0.004000	dropped_samples	10287.060474	Dropped 1 samples	n/a	n/a	n/a	n/a	n/a	n/a	1	UoHDataOffsetStream
799.481673	0.004000	dropped_samples	10289.077101	Dropped 1 samples	n/a	n/a	n/a	n/a	n/a	n/a	1	UoHDataOffsetStream
801.473847	0.004000	dropped_samples	10291.069276	Dropped 1 samples	n/a	n/a	n/a	n/a	n/a	n/a	1	UoHDataOffsetStream
802.504308	0.004000	dropped_samples	10292.099736	Dropped 1 samples	n/a	n/a	n/a	n/a	n/a	n/a	1	UoHDataOffsetStream
805.607274	0.000000	4-back	10295.202702	Steps:4 KeyPress:False Matched:False	1	4	false	false	Correct	false	n/a	n-backMarkers
806.776589	0.004000	dropped_samples	10296.372018	Dropped 1 samples	n/a	n/a	n/a	n/a	n/a	n/a	1	UoHDataOffsetStream
807.308383	0.000000	4-back	10296.903812	Steps:4 KeyPress:False Matched:True	0	4	false	true	Wrong	false	n/a	n-backMarkers
807.499254	0.004000	dropped_samples	10297.094682	Dropped 1 samples	n/a	n/a	n/a	n/a	n/a	n/a	1	UoHDataOffsetStream
809.009143	0.000000	4-back	10298.604571	Steps:4 KeyPress:False Matched:True	0	4	false	true	Wrong	false	n/a	n-backMarkers
809.203437	0.008000	dropped_samples	10298.798865	Dropped 2 samples	n/a	n/a	n/a	n/a	n/a	n/a	2	UoHDataOffsetStream
809.535417	0.004000	dropped_samples	10299.130845	Dropped 1 samples	n/a	n/a	n/a	n/a	n/a	n/a	1	UoHDataOffsetStream
810.546154	0.004000	dropped_samples	10300.141582	Dropped 1 samples	n/a	n/a	n/a	n/a	n/a	n/a	1	UoHDataOffsetStream
810.710968	0.000000	4-back	10300.306397	Steps:4 KeyPress:False Matched:False	1	4	false	false	Correct	false	n/a	n-backMarkers
