onset	duration	trial_type	timestamp_lsl	marker	response_accuracy	difficulty_range	nback_n	keypress	matched	outcome	istutorial	dropped_samples	marker_stream
9.459902	0.000000	dropped_samples	2847.167207	Dropped 1 samples	n/a	n/a	n/a	n/a	n/a	n/a	n/a	1	UoHDataOffsetStream
9.868780	0.000000	dropped_samples	2847.576085	Dropped 1 samples	n/a	n/a	n/a	n/a	n/a	n/a	n/a	1	UoHDataOffsetStream
11.235886	0.000000	dropped_samples	2848.943191	Dropped 1 samples	n/a	n/a	n/a	n/a	n/a	n/a	n/a	1	UoHDataOffsetStream
19.443549	0.000000	dropped_samples	2857.150854	Dropped 3 samples	n/a	n/a	n/a	n/a	n/a	n/a	n/a	3	UoHDataOffsetStream
20.474085	0.000000	dropped_samples	2858.181390	Dropped 1 samples	n/a	n/a	n/a	n/a	n/a	n/a	n/a	1	UoHDataOffsetStream
21.173137	0.000000	dropped_samples	2858.880442	Dropped 1 samples	n/a	n/a	n/a	n/a	n/a	n/a	n/a	1	UoHDataOffsetStream
23.496293	0.000000	dropped_samples	2861.203598	Dropped 1 samples	n/a	n/a	n/a	n/a	n/a	n/a	n/a	1	UoHDataOffsetStream
37.129164	0.000000	dropped_samples	2874.836469	Dropped 3 samples	n/a	n/a	n/a	n/a	n/a	n/a	n/a	3	UoHDataOffsetStream
40.224923	0.000000	dropped_samples	2877.932228	Dropped 1 samples	n/a	n/a	n/a	n/a	n/a	n/a	n/a	1	UoHDataOffsetStream
41.904554	0.000000	dropped_samples	2879.611859	Dropped 3 samples	n/a	n/a	n/a	n/a	n/a	n/a	n/a	3	UoHDataOffsetStream
52.344009	0.000000	dropped_samples	2890.051314	Dropped 1 samples	n/a	n/a	n/a	n/a	n/a	n/a	n/a	1	UoHDataOffsetStream
55.395744	0.000000	dropped_samples	2893.103049	Dropped 1 samples	n/a	n/a	n/a	n/a	n/a	n/a	n/a	1	UoHDataOffsetStream
56.040307	0.000000	dropped_samples	2893.747612	Dropped 3 samples	n/a	n/a	n/a	n/a	n/a	n/a	n/a	3	UoHDataOffsetStream
57.148704	0.000000	dropped_samples	2894.856009	Dropped 1 samples	n/a	n/a	n/a	n/a	n/a	n/a	n/a	1	UoHDataOffsetStream
59.155187	0.000000	dropped_samples	2896.862492	Dropped 6 samples	n/a	n/a	n/a	n/a	n/a	n/a	n/a	6	UoHDataOffsetStream
59.184888	0.000000	dropped_samples	2896.892193	Dropped 8 samples	n/a	n/a	n/a	n/a	n/a	n/a	n/a	8	UoHDataOffsetStream
60.231216	0.000000	dropped_samples	2897.938521	Dropped 6 samples	n/a	n/a	n/a	n/a	n/a	n/a	n/a	6	UoHDataOffsetStream
60.264074	0.000000	dropped_samples	2897.971379	Dropped 8 samples	n/a	n/a	n/a	n/a	n/a	n/a	n/a	8	UoHDataOffsetStream
62.418607	0.000000	dropped_samples	2900.125913	Dropped 4 samples	n/a	n/a	n/a	n/a	n/a	n/a	n/a	4	UoHDataOffsetStream
62.451538	0.000000	dropped_samples	2900.158843	Dropped 2 samples	n/a	n/a	n/a	n/a	n/a	n/a	n/a	2	UoHDataOffsetStream
63.748515	0.000000	dropped_samples	2901.455820	Dropped 3 samples	n/a	n/a	n/a	n/a	n/a	n/a	n/a	3	UoHDataOffsetStream
63.794238	0.000000	dropped_samples	2901.501543	Dropped 23 samples	n/a	n/a	n/a	n/a	n/a	n/a	n/a	23	UoHDataOffsetStream
67.144605	0.000000	dropped_samples	2904.851910	Dropped 3 samples	n/a	n/a	n/a	n/a	n/a	n/a	n/a	3	UoHDataOffsetStream
67.264430	0.000000	dropped_samples	2904.971735	Dropped 49 samples	n/a	n/a	n/a	n/a	n/a	n/a	n/a	49	UoHDataOffsetStream
67.266614	0.000000	dropped_samples	2904.973919	Dropped 40 samples	n/a	n/a	n/a	n/a	n/a	n/a	n/a	40	UoHDataOffsetStream
67.300126	0.000000	dropped_samples	2905.007431	Dropped 40 samples	n/a	n/a	n/a	n/a	n/a	n/a	n/a	40	UoHDataOffsetStream
68.784560	0.000000	dropped_samples	2906.491865	Dropped 3 samples	n/a	n/a	n/a	n/a	n/a	n/a	n/a	3	UoHDataOffsetStream
69.292349	0.000000	dropped_samples	2906.999654	Dropped 2 samples	n/a	n/a	n/a	n/a	n/a	n/a	n/a	2	UoHDataOffsetStream
73.083011	0.000000	dropped_samples	2910.790316	Dropped 3 samples	n/a	n/a	n/a	n/a	n/a	n/a	n/a	3	UoHDataOffsetStream
73.170099	0.000000	dropped_samples	2910.877404	Dropped 44 samples	n/a	n/a	n/a	n/a	n/a	n/a	n/a	44	UoHDataOffsetStream
73.171896	0.000000	dropped_samples	2910.879201	Dropped 41 samples	n/a	n/a	n/a	n/a	n/a	n/a	n/a	41	UoHDataOffsetStream
73.223207	0.000000	dropped_samples	2910.930513	Dropped 30 samples	n/a	n/a	n/a	n/a	n/a	n/a	n/a	30	UoHDataOffsetStream
84.072644	0.000000	dropped_samples	2921.779949	Dropped 1 samples	n/a	n/a	n/a	n/a	n/a	n/a	n/a	1	UoHDataOffsetStream
86.162469	0.000000	dropped_samples	2923.869774	Dropped 1 samples	n/a	n/a	n/a	n/a	n/a	n/a	n/a	1	UoHDataOffsetStream
87.124427	0.000000	dropped_samples	2924.831732	Dropped 3 samples	n/a	n/a	n/a	n/a	n/a	n/a	n/a	3	UoHDataOffsetStream
87.192735	0.000000	dropped_samples	2924.900040	Dropped 1 samples	n/a	n/a	n/a	n/a	n/a	n/a	n/a	1	UoHDataOffsetStream
88.285887	0.000000	dropped_samples	2925.993192	Dropped 1 samples	n/a	n/a	n/a	n/a	n/a	n/a	n/a	1	UoHDataOffsetStream
88.462773	0.000000	dropped_samples	2926.170078	Dropped 2 samples	n/a	n/a	n/a	n/a	n/a	n/a	n/a	2	UoHDataOffsetStream
88.515946	0.000000	dropped_samples	2926.223251	Dropped 1 samples	n/a	n/a	n/a	n/a	n/a	n/a	n/a	1	UoHDataOffsetStream
88.617772	0.000000	dropped_samples	2926.325077	Dropped 2 samples	n/a	n/a	n/a	n/a	n/a	n/a	n/a	2	UoHDataOffsetStream
89.030713	0.000000	dropped_samples	2926.738018	Dropped 4 samples	n/a	n/a	n/a	n/a	n/a	n/a	n/a	4	UoHDataOffsetStream
89.058306	0.000000	dropped_samples	2926.765611	Dropped 2 samples	n/a	n/a	n/a	n/a	n/a	n/a	n/a	2	UoHDataOffsetStream
89.122453	0.000000	dropped_samples	2926.829758	Dropped 3 samples	n/a	n/a	n/a	n/a	n/a	n/a	n/a	3	UoHDataOffsetStream
89.141068	0.000000	dropped_samples	2926.848373	Dropped 2 samples	n/a	n/a	n/a	n/a	n/a	n/a	n/a	2	UoHDataOffsetStream
89.852361	0.000000	dropped_samples	2927.559666	Dropped 3 samples	n/a	n/a	n/a	n/a	n/a	n/a	n/a	3	UoHDataOffsetStream
89.987844	0.000000	dropped_samples	2927.695149	Dropped 3 samples	n/a	n/a	n/a	n/a	n/a	n/a	n/a	3	UoHDataOffsetStream
90.098138	0.000000	dropped_samples	2927.805443	Dropped 5 samples	n/a	n/a	n/a	n/a	n/a	n/a	n/a	5	UoHDataOffsetStream
90.268942	0.000000	dropped_samples	2927.976247	Dropped 3 samples	n/a	n/a	n/a	n/a	n/a	n/a	n/a	3	UoHDataOffsetStream
91.636136	0.000000	dropped_samples	2929.343442	Dropped 1 samples	n/a	n/a	n/a	n/a	n/a	n/a	n/a	1	UoHDataOffsetStream
93.652695	0.000000	dropped_samples	2931.360000	Dropped 3 samples	n/a	n/a	n/a	n/a	n/a	n/a	n/a	3	UoHDataOffsetStream
94.796004	0.000000	dropped_samples	2932.503309	Dropped 7 samples	n/a	n/a	n/a	n/a	n/a	n/a	n/a	7	UoHDataOffsetStream
94.805735	0.000000	dropped_samples	2932.513040	Dropped 3 samples	n/a	n/a	n/a	n/a	n/a	n/a	n/a	3	UoHDataOffsetStream
94.867587	0.000000	dropped_samples	2932.574892	Dropped 11 samples	n/a	n/a	n/a	n/a	n/a	n/a	n/a	11	UoHDataOffsetStream
96.177031	0.000000	dropped_samples	2933.884336	Dropped 6 samples	n/a	n/a	n/a	n/a	n/a	n/a	n/a	6	UoHDataOffsetStream
96.178431	0.000000	dropped_samples	2933.885736	Dropped 1 samples	n/a	n/a	n/a	n/a	n/a	n/a	n/a	1	UoHDataOffsetStream
96.221047	0.000000	dropped_samples	2933.928352	Dropped 4 samples	n/a	n/a	n/a	n/a	n/a	n/a	n/a	4	UoHDataOffsetStream
97.851926	0.000000	dropped_samples	2935.559231	Dropped 1 samples	n/a	n/a	n/a	n/a	n/a	n/a	n/a	1	UoHDataOffsetStream
100.420510	0.000000	dropped_samples	2938.127815	Dropped 1 samples	n/a	n/a	n/a	n/a	n/a	n/a	n/a	1	UoHDataOffsetStream
100.772623	0.000000	started_tutorial_n-back	2938.479928	Started tutorial n-back	n/a	n/a	n/a	n/a	n/a	n/a	n/a	n/a	n-backMarkers
101.548226	0.000000	dropped_samples	2939.255531	Dropped 1 samples	n/a	n/a	n/a	n/a	n/a	n/a	n/a	1	UoHDataOffsetStream
103.921262	0.000000	dropped_samples	2941.628567	Dropped 1 samples	n/a	n/a	n/a	n/a	n/a	n/a	n/a	1	UoHDataOffsetStream
111.816795	0.000000	dropped_samples	2949.524100	Dropped 2 samples	n/a	n/a	n/a	n/a	n/a	n/a	n/a	2	UoHDataOffsetStream
112.763288	0.000000	dropped_samples	2950.470593	Dropped 3 samples	n/a	n/a	n/a	n/a	n/a	n/a	n/a	3	UoHDataOffsetStream
112.777964	0.000000	dropped_samples	2950.485269	Dropped 6 samples	n/a	n/a	n/a	n/a	n/a	n/a	n/a	6	UoHDataOffsetStream
112.783111	0.000000	dropped_samples	2950.490416	Dropped 1 samples	n/a	n/a	n/a	n/a	n/a	n/a	n/a	1	UoHDataOffsetStream
112.827674	0.000000	dropped_samples	2950.534979	Dropped 9 samples	n/a	n/a	n/a	n/a	n/a	n/a	n/a	9	UoHDataOffsetStream
113.355502	0.000000	dropped_samples	2951.062807	Dropped 4 samples	n/a	n/a	n/a	n/a	n/a	n/a	n/a	4	UoHDataOffsetStream
113.634342	0.000000	dropped_samples	2951.341647	Dropped 7 samples	n/a	n/a	n/a	n/a	n/a	n/a	n/a	7	UoHDataOffsetStream
114.341913	0.000000	dropped_samples	2952.049218	Dropped 1 samples	n/a	n/a	n/a	n/a	n/a	n/a	n/a	1	UoHDataOffsetStream
114.798460	0.000000	dropped_samples	2952.505765	Dropped 3 samples	n/a	n/a	n/a	n/a	n/a	n/a	n/a	3	UoHDataOffsetStream
114.912053	0.000000	dropped_samples	2952.619359	Dropped 3 samples	n/a	n/a	n/a	n/a	n/a	n/a	n/a	3	UoHDataOffsetStream
114.919231	0.000000	dropped_samples	2952.626536	Dropped 4 samples	n/a	n/a	n/a	n/a	n/a	n/a	n/a	4	UoHDataOffsetStream
115.043080	0.000000	dropped_samples	2952.750385	Dropped 10 samples	n/a	n/a	n/a	n/a	n/a	n/a	n/a	10	UoHDataOffsetStream
115.083501	0.000000	dropped_samples	2952.790806	Dropped 3 samples	n/a	n/a	n/a	n/a	n/a	n/a	n/a	3	UoHDataOffsetStream
115.996494	0.000000	dropped_samples	2953.703800	Dropped 2 samples	n/a	n/a	n/a	n/a	n/a	n/a	n/a	2	UoHDataOffsetStream
116.219709	0.000000	dropped_samples	2953.927014	Dropped 3 samples	n/a	n/a	n/a	n/a	n/a	n/a	n/a	3	UoHDataOffsetStream
116.627719	0.000000	dropped_samples	2954.335024	Dropped 3 samples	n/a	n/a	n/a	n/a	n/a	n/a	n/a	3	UoHDataOffsetStream
117.505312	0.000000	dropped_samples	2955.212617	Dropped 1 samples	n/a	n/a	n/a	n/a	n/a	n/a	n/a	1	UoHDataOffsetStream
119.311287	0.000000	dropped_samples	2957.018592	Dropped 1 samples	n/a	n/a	n/a	n/a	n/a	n/a	n/a	1	UoHDataOffsetStream
119.355834	0.000000	dropped_samples	2957.063139	Dropped 41 samples	n/a	n/a	n/a	n/a	n/a	n/a	n/a	41	UoHDataOffsetStream
120.218391	0.000000	dropped_samples	2957.925696	Dropped 5 samples	n/a	n/a	n/a	n/a	n/a	n/a	n/a	5	UoHDataOffsetStream
120.223315	0.000000	dropped_samples	2957.930620	Dropped 3 samples	n/a	n/a	n/a	n/a	n/a	n/a	n/a	3	UoHDataOffsetStream
120.268987	0.000000	dropped_samples	2957.976292	Dropped 6 samples	n/a	n/a	n/a	n/a	n/a	n/a	n/a	6	UoHDataOffsetStream
122.041494	0.000000	dropped_samples	2959.748800	Dropped 3 samples	n/a	n/a	n/a	n/a	n/a	n/a	n/a	3	UoHDataOffsetStream
123.892152	0.000000	dropped_samples	2961.599457	Dropped 3 samples	n/a	n/a	n/a	n/a	n/a	n/a	n/a	3	UoHDataOffsetStream
124.596579	0.000000	dropped_samples	2962.303884	Dropped 3 samples	n/a	n/a	n/a	n/a	n/a	n/a	n/a	3	UoHDataOffsetStream
124.642469	0.000000	dropped_samples	2962.349774	Dropped 7 samples	n/a	n/a	n/a	n/a	n/a	n/a	n/a	7	UoHDataOffsetStream
125.632337	0.000000	dropped_samples	2963.339643	Dropped 5 samples	n/a	n/a	n/a	n/a	n/a	n/a	n/a	5	UoHDataOffsetStream
125.669330	0.000000	dropped_samples	2963.376635	Dropped 28 samples	n/a	n/a	n/a	n/a	n/a	n/a	n/a	28	UoHDataOffsetStream
125.943016	0.000000	dropped_samples	2963.650321	Dropped 1 samples	n/a	n/a	n/a	n/a	n/a	n/a	n/a	1	UoHDataOffsetStream
125.947986	0.000000	dropped_samples	2963.655291	Dropped 4 samples	n/a	n/a	n/a	n/a	n/a	n/a	n/a	4	UoHDataOffsetStream
126.156013	0.000000	dropped_samples	2963.863318	Dropped 2 samples	n/a	n/a	n/a	n/a	n/a	n/a	n/a	2	UoHDataOffsetStream
126.196659	0.000000	dropped_samples	2963.903964	Dropped 7 samples	n/a	n/a	n/a	n/a	n/a	n/a	n/a	7	UoHDataOffsetStream
126.553312	0.000000	dropped_samples	2964.260617	Dropped 1 samples	n/a	n/a	n/a	n/a	n/a	n/a	n/a	1	UoHDataOffsetStream
128.213313	0.000000	dropped_samples	2965.920618	Dropped 3 samples	n/a	n/a	n/a	n/a	n/a	n/a	n/a	3	UoHDataOffsetStream
130.461964	0.000000	dropped_samples	2968.169269	Dropped 2 samples	n/a	n/a	n/a	n/a	n/a	n/a	n/a	2	UoHDataOffsetStream
130.650393	0.000000	dropped_samples	2968.357698	Dropped 2 samples	n/a	n/a	n/a	n/a	n/a	n/a	n/a	2	UoHDataOffsetStream
130.684022	0.000000	dropped_samples	2968.391327	Dropped 3 samples	n/a	n/a	n/a	n/a	n/a	n/a	n/a	3	UoHDataOffsetStream
131.137769	0.000000	dropped_samples	2968.845074	Dropped 3 samples	n/a	n/a	n/a	n/a	n/a	n/a	n/a	3	UoHDataOffsetStream
131.143405	0.000000	dropped_samples	2968.850710	Dropped 3 samples	n/a	n/a	n/a	n/a	n/a	n/a	n/a	3	UoHDataOffsetStream
131.186906	0.000000	dropped_samples	2968.894211	Dropped 7 samples	n/a	n/a	n/a	n/a	n/a	n/a	n/a	7	UoHDataOffsetStream
132.623220	0.000000	dropped_samples	2970.330525	Dropped 3 samples	n/a	n/a	n/a	n/a	n/a	n/a	n/a	3	UoHDataOffsetStream
132.631455	0.000000	dropped_samples	2970.338760	Dropped 6 samples	n/a	n/a	n/a	n/a	n/a	n/a	n/a	6	UoHDataOffsetStream
132.676314	0.000000	dropped_samples	2970.383619	Dropped 28 samples	n/a	n/a	n/a	n/a	n/a	n/a	n/a	28	UoHDataOffsetStream
134.497502	0.000000	dropped_samples	2972.204807	Dropped 1 samples	n/a	n/a	n/a	n/a	n/a	n/a	n/a	1	UoHDataOffsetStream
135.845224	0.000000	dropped_samples	2973.552529	Dropped 1 samples	n/a	n/a	n/a	n/a	n/a	n/a	n/a	1	UoHDataOffsetStream
142.539457	0.000000	dropped_samples	2980.246762	Dropped 1 samples	n/a	n/a	n/a	n/a	n/a	n/a	n/a	1	UoHDataOffsetStream
145.513193	0.000000	dropped_samples	2983.220498	Dropped 1 samples	n/a	n/a	n/a	n/a	n/a	n/a	n/a	1	UoHDataOffsetStream
151.108846	0.000000	dropped_samples	2988.816151	Dropped 1 samples	n/a	n/a	n/a	n/a	n/a	n/a	n/a	1	UoHDataOffsetStream
155.137165	0.000000	dropped_samples	2992.844470	Dropped 2 samples	n/a	n/a	n/a	n/a	n/a	n/a	n/a	2	UoHDataOffsetStream
164.761240	0.000000	dropped_samples	3002.468545	Dropped 1 samples	n/a	n/a	n/a	n/a	n/a	n/a	n/a	1	UoHDataOffsetStream
165.913656	0.000000	dropped_samples	3003.620961	Dropped 2 samples	n/a	n/a	n/a	n/a	n/a	n/a	n/a	2	UoHDataOffsetStream
166.202318	0.000000	dropped_samples	3003.909623	Dropped 3 samples	n/a	n/a	n/a	n/a	n/a	n/a	n/a	3	UoHDataOffsetStream
167.107293	0.000000	dropped_samples	3004.814598	Dropped 5 samples	n/a	n/a	n/a	n/a	n/a	n/a	n/a	5	UoHDataOffsetStream
167.107868	0.000000	dropped_samples	3004.815173	Dropped 3 samples	n/a	n/a	n/a	n/a	n/a	n/a	n/a	3	UoHDataOffsetStream
167.139226	0.000000	dropped_samples	3004.846531	Dropped 24 samples	n/a	n/a	n/a	n/a	n/a	n/a	n/a	24	UoHDataOffsetStream
167.798526	1.701006	nback_1	3005.505832	Steps:1 KeyPress:False Matched:False	1	n/a	1	False	False	n/a	n/a	n/a	n-backMarkers
168.236312	0.000000	dropped_samples	3005.943617	Dropped 6 samples	n/a	n/a	n/a	n/a	n/a	n/a	n/a	6	UoHDataOffsetStream
168.236904	0.000000	dropped_samples	3005.944209	Dropped 2 samples	n/a	n/a	n/a	n/a	n/a	n/a	n/a	2	UoHDataOffsetStream
168.337671	0.000000	dropped_samples	3006.044976	Dropped 3 samples	n/a	n/a	n/a	n/a	n/a	n/a	n/a	3	UoHDataOffsetStream
168.389184	0.000000	dropped_samples	3006.096489	Dropped 9 samples	n/a	n/a	n/a	n/a	n/a	n/a	n/a	9	UoHDataOffsetStream
169.498906	1.701006	nback_1	3007.206212	Steps:1 KeyPress:False Matched:False	1	n/a	1	False	False	n/a	n/a	n/a	n-backMarkers
169.658731	0.000000	dropped_samples	3007.366036	Dropped 3 samples	n/a	n/a	n/a	n/a	n/a	n/a	n/a	3	UoHDataOffsetStream
171.199367	1.701006	nback_1	3008.906673	Steps:1 KeyPress:False Matched:True	0	n/a	1	False	True	n/a	n/a	n/a	n-backMarkers
172.899981	1.701006	nback_1	3010.607287	Steps:1 KeyPress:False Matched:False	1	n/a	1	False	False	n/a	n/a	n/a	n-backMarkers
173.089252	0.000000	dropped_samples	3010.796557	Dropped 3 samples	n/a	n/a	n/a	n/a	n/a	n/a	n/a	3	UoHDataOffsetStream
173.096591	0.000000	dropped_samples	3010.803896	Dropped 4 samples	n/a	n/a	n/a	n/a	n/a	n/a	n/a	4	UoHDataOffsetStream
173.140138	0.000000	dropped_samples	3010.847443	Dropped 23 samples	n/a	n/a	n/a	n/a	n/a	n/a	n/a	23	UoHDataOffsetStream
174.195117	0.000000	dropped_samples	3011.902422	Dropped 7 samples	n/a	n/a	n/a	n/a	n/a	n/a	n/a	7	UoHDataOffsetStream
174.602326	1.701006	nback_1	3012.309631	Steps:1 KeyPress:False Matched:False	1	n/a	1	False	False	n/a	n/a	n/a	n-backMarkers
176.211419	0.000000	dropped_samples	3013.918724	Dropped 3 samples	n/a	n/a	n/a	n/a	n/a	n/a	n/a	3	UoHDataOffsetStream
176.302897	1.701006	nback_1	3014.010203	Steps:1 KeyPress:False Matched:False	1	n/a	1	False	False	n/a	n/a	n/a	n-backMarkers
176.524041	0.000000	dropped_samples	3014.231346	Dropped 3 samples	n/a	n/a	n/a	n/a	n/a	n/a	n/a	3	UoHDataOffsetStream
178.003974	1.701006	nback_1	3015.711280	Steps:1 KeyPress:False Matched:False	1	n/a	1	False	False	n/a	n/a	n/a	n-backMarkers
178.698571	0.000000	dropped_samples	3016.405876	Dropped 7 samples	n/a	n/a	n/a	n/a	n/a	n/a	n/a	7	UoHDataOffsetStream
178.700129	0.000000	dropped_samples	3016.407434	Dropped 3 samples	n/a	n/a	n/a	n/a	n/a	n/a	n/a	3	UoHDataOffsetStream
178.731037	0.000000	dropped_samples	3016.438342	Dropped 7 samples	n/a	n/a	n/a	n/a	n/a	n/a	n/a	7	UoHDataOffsetStream
179.546380	0.000000	dropped_samples	3017.253685	Dropped 3 samples	n/a	n/a	n/a	n/a	n/a	n/a	n/a	3	UoHDataOffsetStream
179.704891	1.701006	nback_1	3017.412196	Steps:1 KeyPress:False Matched:False	1	n/a	1	False	False	n/a	n/a	n/a	n-backMarkers
180.581665	0.000000	dropped_samples	3018.288970	Dropped 1 samples	n/a	n/a	n/a	n/a	n/a	n/a	n/a	1	UoHDataOffsetStream
180.913606	0.000000	dropped_samples	3018.620911	Dropped 1 samples	n/a	n/a	n/a	n/a	n/a	n/a	n/a	1	UoHDataOffsetStream
181.405050	1.701006	nback_1	3019.112355	Steps:1 KeyPress:False Matched:False	1	n/a	1	False	False	n/a	n/a	n/a	n-backMarkers
183.106054	1.701006	nback_1	3020.813359	Steps:1 KeyPress:False Matched:True	0	n/a	1	False	True	n/a	n/a	n/a	n-backMarkers
183.263401	0.000000	dropped_samples	3020.970706	Dropped 3 samples	n/a	n/a	n/a	n/a	n/a	n/a	n/a	3	UoHDataOffsetStream
183.294513	0.000000	dropped_samples	3021.001818	Dropped 3 samples	n/a	n/a	n/a	n/a	n/a	n/a	n/a	3	UoHDataOffsetStream
183.295884	0.000000	dropped_samples	3021.003189	Dropped 3 samples	n/a	n/a	n/a	n/a	n/a	n/a	n/a	3	UoHDataOffsetStream
183.340411	0.000000	dropped_samples	3021.047716	Dropped 5 samples	n/a	n/a	n/a	n/a	n/a	n/a	n/a	5	UoHDataOffsetStream
184.806621	1.701006	nback_1	3022.513926	Steps:1 KeyPress:False Matched:False	1	n/a	1	False	False	n/a	n/a	n/a	n-backMarkers
185.884269	0.000000	dropped_samples	3023.591574	Dropped 1 samples	n/a	n/a	n/a	n/a	n/a	n/a	n/a	1	UoHDataOffsetStream
186.508759	1.701006	nback_1	3024.216064	Steps:1 KeyPress:False Matched:False	1	n/a	1	False	False	n/a	n/a	n/a	n-backMarkers
188.209893	1.701006	nback_1	3025.917199	Steps:1 KeyPress:False Matched:True	0	n/a	1	False	True	n/a	n/a	n/a	n-backMarkers
188.618720	0.000000	dropped_samples	3026.326025	Dropped 1 samples	n/a	n/a	n/a	n/a	n/a	n/a	n/a	1	UoHDataOffsetStream
189.910963	1.701006	nback_1	3027.618269	Steps:1 KeyPress:False Matched:False	1	n/a	1	False	False	n/a	n/a	n/a	n-backMarkers
190.912656	0.000000	dropped_samples	3028.619961	Dropped 3 samples	n/a	n/a	n/a	n/a	n/a	n/a	n/a	3	UoHDataOffsetStream
190.962457	0.000000	dropped_samples	3028.669762	Dropped 1 samples	n/a	n/a	n/a	n/a	n/a	n/a	n/a	1	UoHDataOffsetStream
190.963818	0.000000	dropped_samples	3028.671123	Dropped 3 samples	n/a	n/a	n/a	n/a	n/a	n/a	n/a	3	UoHDataOffsetStream
190.996590	0.000000	dropped_samples	3028.703895	Dropped 16 samples	n/a	n/a	n/a	n/a	n/a	n/a	n/a	16	UoHDataOffsetStream
191.611541	1.701006	nback_1	3029.318846	Steps:1 KeyPress:True Matched:False	0	n/a	1	True	False	n/a	n/a	n/a	n-backMarkers
191.713895	0.000000	dropped_samples	3029.421200	Dropped 7 samples	n/a	n/a	n/a	n/a	n/a	n/a	n/a	7	UoHDataOffsetStream
191.933670	0.000000	dropped_samples	3029.640975	Dropped 9 samples	n/a	n/a	n/a	n/a	n/a	n/a	n/a	9	UoHDataOffsetStream
191.935991	0.000000	dropped_samples	3029.643296	Dropped 3 samples	n/a	n/a	n/a	n/a	n/a	n/a	n/a	3	UoHDataOffsetStream
191.978025	0.000000	dropped_samples	3029.685330	Dropped 3 samples	n/a	n/a	n/a	n/a	n/a	n/a	n/a	3	UoHDataOffsetStream
192.684520	0.000000	dropped_samples	3030.391825	Dropped 3 samples	n/a	n/a	n/a	n/a	n/a	n/a	n/a	3	UoHDataOffsetStream
192.716422	0.000000	dropped_samples	3030.423727	Dropped 3 samples	n/a	n/a	n/a	n/a	n/a	n/a	n/a	3	UoHDataOffsetStream
192.725528	0.000000	dropped_samples	3030.432833	Dropped 3 samples	n/a	n/a	n/a	n/a	n/a	n/a	n/a	3	UoHDataOffsetStream
192.773994	0.000000	dropped_samples	3030.481300	Dropped 7 samples	n/a	n/a	n/a	n/a	n/a	n/a	n/a	7	UoHDataOffsetStream
192.988867	0.000000	dropped_samples	3030.696172	Dropped 2 samples	n/a	n/a	n/a	n/a	n/a	n/a	n/a	2	UoHDataOffsetStream
193.312311	1.701006	nback_1	3031.019617	Steps:1 KeyPress:False Matched:True	0	n/a	1	False	True	n/a	n/a	n/a	n-backMarkers
194.116775	0.000000	dropped_samples	3031.824080	Dropped 2 samples	n/a	n/a	n/a	n/a	n/a	n/a	n/a	2	UoHDataOffsetStream
195.013691	1.701006	nback_1	3032.720997	Steps:1 KeyPress:False Matched:True	0	n/a	1	False	True	n/a	n/a	n/a	n-backMarkers
196.201788	0.000000	dropped_samples	3033.909093	Dropped 1 samples	n/a	n/a	n/a	n/a	n/a	n/a	n/a	1	UoHDataOffsetStream
196.714722	1.701006	nback_1	3034.422028	Steps:1 KeyPress:False Matched:False	1	n/a	1	False	False	n/a	n/a	n/a	n-backMarkers
198.027867	0.000000	dropped_samples	3035.735172	Dropped 1 samples	n/a	n/a	n/a	n/a	n/a	n/a	n/a	1	UoHDataOffsetStream
198.417099	1.701006	nback_1	3036.124404	Steps:1 KeyPress:False Matched:False	1	n/a	1	False	False	n/a	n/a	n/a	n-backMarkers
199.922438	0.000000	dropped_samples	3037.629743	Dropped 1 samples	n/a	n/a	n/a	n/a	n/a	n/a	n/a	1	UoHDataOffsetStream
200.118725	1.701006	nback_1	3037.826031	Steps:1 KeyPress:True Matched:False	0	n/a	1	True	False	n/a	n/a	n/a	n-backMarkers
201.821314	1.701006	nback_1	3039.528619	Steps:1 KeyPress:True Matched:False	0	n/a	1	True	False	n/a	n/a	n/a	n-backMarkers
202.423840	0.000000	dropped_samples	3040.131145	Dropped 3 samples	n/a	n/a	n/a	n/a	n/a	n/a	n/a	3	UoHDataOffsetStream
203.618714	0.000000	dropped_samples	3041.326019	Dropped 2 samples	n/a	n/a	n/a	n/a	n/a	n/a	n/a	2	UoHDataOffsetStream
210.536645	1.701006	nback_2	3048.243951	Steps:2 KeyPress:False Matched:False	1	n/a	2	False	False	n/a	n/a	n/a	n-backMarkers
212.237713	1.701006	nback_2	3049.945019	Steps:2 KeyPress:False Matched:False	1	n/a	2	False	False	n/a	n/a	n/a	n-backMarkers
213.770296	0.000000	dropped_samples	3051.477602	Dropped 2 samples	n/a	n/a	n/a	n/a	n/a	n/a	n/a	2	UoHDataOffsetStream
213.938736	1.701006	nback_2	3051.646042	Steps:2 KeyPress:False Matched:False	1	n/a	2	False	False	n/a	n/a	n/a	n-backMarkers
214.624209	0.000000	dropped_samples	3052.331514	Dropped 2 samples	n/a	n/a	n/a	n/a	n/a	n/a	n/a	2	UoHDataOffsetStream
214.665698	0.000000	dropped_samples	3052.373003	Dropped 3 samples	n/a	n/a	n/a	n/a	n/a	n/a	n/a	3	UoHDataOffsetStream
214.667029	0.000000	dropped_samples	3052.374334	Dropped 1 samples	n/a	n/a	n/a	n/a	n/a	n/a	n/a	1	UoHDataOffsetStream
214.707981	0.000000	dropped_samples	3052.415286	Dropped 6 samples	n/a	n/a	n/a	n/a	n/a	n/a	n/a	6	UoHDataOffsetStream
215.639660	1.701006	nback_2	3053.346965	Steps:2 KeyPress:False Matched:False	1	n/a	2	False	False	n/a	n/a	n/a	n-backMarkers
215.687596	0.000000	dropped_samples	3053.394901	Dropped 3 samples	n/a	n/a	n/a	n/a	n/a	n/a	n/a	3	UoHDataOffsetStream
215.727673	0.000000	dropped_samples	3053.434978	Dropped 3 samples	n/a	n/a	n/a	n/a	n/a	n/a	n/a	3	UoHDataOffsetStream
215.762254	0.000000	dropped_samples	3053.469559	Dropped 8 samples	n/a	n/a	n/a	n/a	n/a	n/a	n/a	8	UoHDataOffsetStream
216.414860	0.000000	dropped_samples	3054.122165	Dropped 1 samples	n/a	n/a	n/a	n/a	n/a	n/a	n/a	1	UoHDataOffsetStream
216.677071	0.000000	dropped_samples	3054.384376	Dropped 2 samples	n/a	n/a	n/a	n/a	n/a	n/a	n/a	2	UoHDataOffsetStream
216.731005	0.000000	dropped_samples	3054.438310	Dropped 6 samples	n/a	n/a	n/a	n/a	n/a	n/a	n/a	6	UoHDataOffsetStream
216.865756	0.000000	dropped_samples	3054.573062	Dropped 1 samples	n/a	n/a	n/a	n/a	n/a	n/a	n/a	1	UoHDataOffsetStream
217.339794	1.701006	nback_2	3055.047100	Steps:2 KeyPress:True Matched:True	1	n/a	2	True	True	n/a	n/a	n/a	n-backMarkers
218.306242	0.000000	dropped_samples	3056.013547	Dropped 1 samples	n/a	n/a	n/a	n/a	n/a	n/a	n/a	1	UoHDataOffsetStream
219.041204	1.701006	nback_2	3056.748510	Steps:2 KeyPress:False Matched:False	1	n/a	2	False	False	n/a	n/a	n/a	n-backMarkers
220.607169	0.000000	dropped_samples	3058.314474	Dropped 7 samples	n/a	n/a	n/a	n/a	n/a	n/a	n/a	7	UoHDataOffsetStream
220.624802	0.000000	dropped_samples	3058.332107	Dropped 1 samples	n/a	n/a	n/a	n/a	n/a	n/a	n/a	1	UoHDataOffsetStream
220.742250	1.701006	nback_2	3058.449556	Steps:2 KeyPress:False Matched:False	1	n/a	2	False	False	n/a	n/a	n/a	n-backMarkers
220.781760	0.000000	dropped_samples	3058.489065	Dropped 1 samples	n/a	n/a	n/a	n/a	n/a	n/a	n/a	1	UoHDataOffsetStream
221.421735	0.000000	dropped_samples	3059.129040	Dropped 6 samples	n/a	n/a	n/a	n/a	n/a	n/a	n/a	6	UoHDataOffsetStream
221.629237	0.000000	dropped_samples	3059.336542	Dropped 3 samples	n/a	n/a	n/a	n/a	n/a	n/a	n/a	3	UoHDataOffsetStream
222.442938	1.701006	nback_2	3060.150244	Steps:2 KeyPress:True Matched:False	0	n/a	2	True	False	n/a	n/a	n/a	n-backMarkers
222.578632	0.000000	dropped_samples	3060.285937	Dropped 4 samples	n/a	n/a	n/a	n/a	n/a	n/a	n/a	4	UoHDataOffsetStream
222.579561	0.000000	dropped_samples	3060.286866	Dropped 1 samples	n/a	n/a	n/a	n/a	n/a	n/a	n/a	1	UoHDataOffsetStream
222.649774	0.000000	dropped_samples	3060.357079	Dropped 3 samples	n/a	n/a	n/a	n/a	n/a	n/a	n/a	3	UoHDataOffsetStream
223.013263	0.000000	dropped_samples	3060.720568	Dropped 2 samples	n/a	n/a	n/a	n/a	n/a	n/a	n/a	2	UoHDataOffsetStream
224.143833	1.701006	nback_2	3061.851139	Steps:2 KeyPress:False Matched:False	1	n/a	2	False	False	n/a	n/a	n/a	n-backMarkers
225.845365	1.701006	nback_2	3063.552671	Steps:2 KeyPress:False Matched:False	1	n/a	2	False	False	n/a	n/a	n/a	n-backMarkers
227.546149	1.701006	nback_2	3065.253454	Steps:2 KeyPress:True Matched:False	0	n/a	2	True	False	n/a	n/a	n/a	n-backMarkers
229.246895	1.701006	nback_2	3066.954201	Steps:2 KeyPress:False Matched:False	1	n/a	2	False	False	n/a	n/a	n/a	n-backMarkers
230.947090	1.701006	nback_2	3068.654396	Steps:2 KeyPress:True Matched:False	0	n/a	2	True	False	n/a	n/a	n/a	n-backMarkers
232.647843	1.701006	nback_2	3070.355149	Steps:2 KeyPress:False Matched:False	1	n/a	2	False	False	n/a	n/a	n/a	n-backMarkers
234.348847	1.701006	nback_2	3072.056152	Steps:2 KeyPress:False Matched:True	0	n/a	2	False	True	n/a	n/a	n/a	n-backMarkers
234.868748	0.000000	dropped_samples	3072.576053	Dropped 2 samples	n/a	n/a	n/a	n/a	n/a	n/a	n/a	2	UoHDataOffsetStream
235.586654	0.000000	dropped_samples	3073.293959	Dropped 1 samples	n/a	n/a	n/a	n/a	n/a	n/a	n/a	1	UoHDataOffsetStream
236.049910	1.701006	nback_2	3073.757215	Steps:2 KeyPress:False Matched:False	1	n/a	2	False	False	n/a	n/a	n/a	n-backMarkers
237.751709	1.701006	nback_2	3075.459015	Steps:2 KeyPress:False Matched:False	1	n/a	2	False	False	n/a	n/a	n/a	n-backMarkers
238.325762	0.000000	dropped_samples	3076.033067	Dropped 2 samples	n/a	n/a	n/a	n/a	n/a	n/a	n/a	2	UoHDataOffsetStream
239.413691	0.000000	dropped_samples	3077.120996	Dropped 3 samples	n/a	n/a	n/a	n/a	n/a	n/a	n/a	3	UoHDataOffsetStream
239.451918	1.701006	nback_2	3077.159223	Steps:2 KeyPress:False Matched:False	1	n/a	2	False	False	n/a	n/a	n/a	n-backMarkers
239.488710	0.000000	dropped_samples	3077.196015	Dropped 2 samples	n/a	n/a	n/a	n/a	n/a	n/a	n/a	2	UoHDataOffsetStream
239.668904	0.000000	dropped_samples	3077.376209	Dropped 3 samples	n/a	n/a	n/a	n/a	n/a	n/a	n/a	3	UoHDataOffsetStream
240.557978	0.000000	dropped_samples	3078.265283	Dropped 1 samples	n/a	n/a	n/a	n/a	n/a	n/a	n/a	1	UoHDataOffsetStream
241.153524	1.701006	nback_2	3078.860829	Steps:2 KeyPress:True Matched:False	0	n/a	2	True	False	n/a	n/a	n/a	n-backMarkers
242.310156	0.000000	dropped_samples	3080.017462	Dropped 1 samples	n/a	n/a	n/a	n/a	n/a	n/a	n/a	1	UoHDataOffsetStream
242.855109	1.701006	nback_2	3080.562415	Steps:2 KeyPress:False Matched:True	0	n/a	2	False	True	n/a	n/a	n/a	n-backMarkers
244.983812	0.000000	dropped_samples	3082.691117	Dropped 2 samples	n/a	n/a	n/a	n/a	n/a	n/a	n/a	2	UoHDataOffsetStream
245.024614	0.000000	dropped_samples	3082.731919	Dropped 3 samples	n/a	n/a	n/a	n/a	n/a	n/a	n/a	3	UoHDataOffsetStream
245.068941	0.000000	dropped_samples	3082.776246	Dropped 25 samples	n/a	n/a	n/a	n/a	n/a	n/a	n/a	25	UoHDataOffsetStream
245.627887	0.000000	dropped_samples	3083.335192	Dropped 7 samples	n/a	n/a	n/a	n/a	n/a	n/a	n/a	7	UoHDataOffsetStream
245.629781	0.000000	dropped_samples	3083.337086	Dropped 3 samples	n/a	n/a	n/a	n/a	n/a	n/a	n/a	3	UoHDataOffsetStream
245.669643	0.000000	dropped_samples	3083.376948	Dropped 4 samples	n/a	n/a	n/a	n/a	n/a	n/a	n/a	4	UoHDataOffsetStream
246.648232	0.000000	dropped_samples	3084.355537	Dropped 3 samples	n/a	n/a	n/a	n/a	n/a	n/a	n/a	3	UoHDataOffsetStream
246.656564	0.000000	dropped_samples	3084.363869	Dropped 6 samples	n/a	n/a	n/a	n/a	n/a	n/a	n/a	6	UoHDataOffsetStream
246.699879	0.000000	dropped_samples	3084.407184	Dropped 6 samples	n/a	n/a	n/a	n/a	n/a	n/a	n/a	6	UoHDataOffsetStream
247.012348	0.000000	dropped_samples	3084.719653	Dropped 1 samples	n/a	n/a	n/a	n/a	n/a	n/a	n/a	1	UoHDataOffsetStream
250.406826	0.000000	dropped_samples	3088.114131	Dropped 2 samples	n/a	n/a	n/a	n/a	n/a	n/a	n/a	2	UoHDataOffsetStream
250.675855	0.000000	dropped_samples	3088.383160	Dropped 3 samples	n/a	n/a	n/a	n/a	n/a	n/a	n/a	3	UoHDataOffsetStream
250.797654	0.000000	dropped_samples	3088.504960	Dropped 2 samples	n/a	n/a	n/a	n/a	n/a	n/a	n/a	2	UoHDataOffsetStream
250.806573	0.000000	dropped_samples	3088.513878	Dropped 2 samples	n/a	n/a	n/a	n/a	n/a	n/a	n/a	2	UoHDataOffsetStream
250.850297	0.000000	dropped_samples	3088.557602	Dropped 7 samples	n/a	n/a	n/a	n/a	n/a	n/a	n/a	7	UoHDataOffsetStream
251.436428	0.000000	dropped_samples	3089.143733	Dropped 3 samples	n/a	n/a	n/a	n/a	n/a	n/a	n/a	3	UoHDataOffsetStream
251.476034	0.000000	dropped_samples	3089.183339	Dropped 4 samples	n/a	n/a	n/a	n/a	n/a	n/a	n/a	4	UoHDataOffsetStream
251.554842	1.701006	nback_3	3089.262148	Steps:3 KeyPress:False Matched:False	1	n/a	3	False	False	n/a	n/a	n/a	n-backMarkers
251.646067	0.000000	dropped_samples	3089.353373	Dropped 3 samples	n/a	n/a	n/a	n/a	n/a	n/a	n/a	3	UoHDataOffsetStream
252.857859	0.000000	dropped_samples	3090.565164	Dropped 3 samples	n/a	n/a	n/a	n/a	n/a	n/a	n/a	3	UoHDataOffsetStream
252.933290	0.000000	dropped_samples	3090.640595	Dropped 5 samples	n/a	n/a	n/a	n/a	n/a	n/a	n/a	5	UoHDataOffsetStream
252.964463	0.000000	dropped_samples	3090.671768	Dropped 23 samples	n/a	n/a	n/a	n/a	n/a	n/a	n/a	23	UoHDataOffsetStream
253.255742	1.701006	nback_3	3090.963047	Steps:3 KeyPress:False Matched:False	1	n/a	3	False	False	n/a	n/a	n/a	n-backMarkers
253.301395	0.000000	dropped_samples	3091.008700	Dropped 2 samples	n/a	n/a	n/a	n/a	n/a	n/a	n/a	2	UoHDataOffsetStream
254.956833	1.701006	nback_3	3092.664139	Steps:3 KeyPress:False Matched:False	1	n/a	3	False	False	n/a	n/a	n/a	n-backMarkers
256.658772	1.701006	nback_3	3094.366077	Steps:3 KeyPress:False Matched:False	1	n/a	3	False	False	n/a	n/a	n/a	n-backMarkers
257.080225	0.000000	dropped_samples	3094.787530	Dropped 6 samples	n/a	n/a	n/a	n/a	n/a	n/a	n/a	6	UoHDataOffsetStream
257.081499	0.000000	dropped_samples	3094.788804	Dropped 3 samples	n/a	n/a	n/a	n/a	n/a	n/a	n/a	3	UoHDataOffsetStream
257.114863	0.000000	dropped_samples	3094.822168	Dropped 23 samples	n/a	n/a	n/a	n/a	n/a	n/a	n/a	23	UoHDataOffsetStream
257.561680	0.000000	dropped_samples	3095.268985	Dropped 1 samples	n/a	n/a	n/a	n/a	n/a	n/a	n/a	1	UoHDataOffsetStream
257.739857	0.000000	dropped_samples	3095.447162	Dropped 13 samples	n/a	n/a	n/a	n/a	n/a	n/a	n/a	13	UoHDataOffsetStream
258.359741	1.701006	nback_3	3096.067046	Steps:3 KeyPress:False Matched:False	1	n/a	3	False	False	n/a	n/a	n/a	n-backMarkers
258.763225	0.000000	dropped_samples	3096.470530	Dropped 3 samples	n/a	n/a	n/a	n/a	n/a	n/a	n/a	3	UoHDataOffsetStream
258.765015	0.000000	dropped_samples	3096.472320	Dropped 3 samples	n/a	n/a	n/a	n/a	n/a	n/a	n/a	3	UoHDataOffsetStream
258.835775	0.000000	dropped_samples	3096.543080	Dropped 3 samples	n/a	n/a	n/a	n/a	n/a	n/a	n/a	3	UoHDataOffsetStream
258.837032	0.000000	dropped_samples	3096.544337	Dropped 3 samples	n/a	n/a	n/a	n/a	n/a	n/a	n/a	3	UoHDataOffsetStream
258.867805	0.000000	dropped_samples	3096.575110	Dropped 7 samples	n/a	n/a	n/a	n/a	n/a	n/a	n/a	7	UoHDataOffsetStream
259.805296	0.000000	dropped_samples	3097.512601	Dropped 3 samples	n/a	n/a	n/a	n/a	n/a	n/a	n/a	3	UoHDataOffsetStream
260.061664	1.701006	nback_3	3097.768969	Steps:3 KeyPress:False Matched:False	1	n/a	3	False	False	n/a	n/a	n/a	n-backMarkers
260.117777	0.000000	dropped_samples	3097.825082	Dropped 1 samples	n/a	n/a	n/a	n/a	n/a	n/a	n/a	1	UoHDataOffsetStream
261.763280	1.701006	nback_3	3099.470586	Steps:3 KeyPress:True Matched:False	0	n/a	3	True	False	n/a	n/a	n/a	n-backMarkers
263.000579	0.000000	dropped_samples	3100.707884	Dropped 3 samples	n/a	n/a	n/a	n/a	n/a	n/a	n/a	3	UoHDataOffsetStream
263.109646	0.000000	dropped_samples	3100.816951	Dropped 3 samples	n/a	n/a	n/a	n/a	n/a	n/a	n/a	3	UoHDataOffsetStream
263.164740	0.000000	dropped_samples	3100.872045	Dropped 26 samples	n/a	n/a	n/a	n/a	n/a	n/a	n/a	26	UoHDataOffsetStream
263.464804	1.701006	nback_3	3101.172109	Steps:3 KeyPress:True Matched:False	0	n/a	3	True	False	n/a	n/a	n/a	n-backMarkers
263.501772	0.000000	dropped_samples	3101.209077	Dropped 4 samples	n/a	n/a	n/a	n/a	n/a	n/a	n/a	4	UoHDataOffsetStream
263.938346	0.000000	dropped_samples	3101.645651	Dropped 3 samples	n/a	n/a	n/a	n/a	n/a	n/a	n/a	3	UoHDataOffsetStream
263.980184	0.000000	dropped_samples	3101.687490	Dropped 2 samples	n/a	n/a	n/a	n/a	n/a	n/a	n/a	2	UoHDataOffsetStream
264.447880	0.000000	dropped_samples	3102.155185	Dropped 3 samples	n/a	n/a	n/a	n/a	n/a	n/a	n/a	3	UoHDataOffsetStream
264.607522	0.000000	dropped_samples	3102.314827	Dropped 3 samples	n/a	n/a	n/a	n/a	n/a	n/a	n/a	3	UoHDataOffsetStream
264.654508	0.000000	dropped_samples	3102.361813	Dropped 4 samples	n/a	n/a	n/a	n/a	n/a	n/a	n/a	4	UoHDataOffsetStream
265.166696	1.701006	nback_3	3102.874002	Steps:3 KeyPress:True Matched:False	0	n/a	3	True	False	n/a	n/a	n/a	n-backMarkers
265.263903	0.000000	dropped_samples	3102.971208	Dropped 3 samples	n/a	n/a	n/a	n/a	n/a	n/a	n/a	3	UoHDataOffsetStream
265.362259	0.000000	dropped_samples	3103.069564	Dropped 3 samples	n/a	n/a	n/a	n/a	n/a	n/a	n/a	3	UoHDataOffsetStream
265.396119	0.000000	dropped_samples	3103.103424	Dropped 2 samples	n/a	n/a	n/a	n/a	n/a	n/a	n/a	2	UoHDataOffsetStream
266.021152	0.000000	dropped_samples	3103.728457	Dropped 1 samples	n/a	n/a	n/a	n/a	n/a	n/a	n/a	1	UoHDataOffsetStream
266.333678	0.000000	dropped_samples	3104.040983	Dropped 3 samples	n/a	n/a	n/a	n/a	n/a	n/a	n/a	3	UoHDataOffsetStream
266.836538	0.000000	dropped_samples	3104.543843	Dropped 3 samples	n/a	n/a	n/a	n/a	n/a	n/a	n/a	3	UoHDataOffsetStream
266.867764	1.701006	nback_3	3104.575070	Steps:3 KeyPress:False Matched:False	1	n/a	3	False	False	n/a	n/a	n/a	n-backMarkers
267.149477	0.000000	dropped_samples	3104.856782	Dropped 3 samples	n/a	n/a	n/a	n/a	n/a	n/a	n/a	3	UoHDataOffsetStream
267.554531	0.000000	dropped_samples	3105.261836	Dropped 3 samples	n/a	n/a	n/a	n/a	n/a	n/a	n/a	3	UoHDataOffsetStream
268.544019	0.000000	dropped_samples	3106.251324	Dropped 3 samples	n/a	n/a	n/a	n/a	n/a	n/a	n/a	3	UoHDataOffsetStream
268.569678	1.701006	nback_3	3106.276983	Steps:3 KeyPress:False Matched:False	1	n/a	3	False	False	n/a	n/a	n/a	n-backMarkers
268.634473	0.000000	dropped_samples	3106.341779	Dropped 6 samples	n/a	n/a	n/a	n/a	n/a	n/a	n/a	6	UoHDataOffsetStream
268.693320	0.000000	dropped_samples	3106.400625	Dropped 3 samples	n/a	n/a	n/a	n/a	n/a	n/a	n/a	3	UoHDataOffsetStream
269.698446	0.000000	dropped_samples	3107.405751	Dropped 3 samples	n/a	n/a	n/a	n/a	n/a	n/a	n/a	3	UoHDataOffsetStream
269.701280	0.000000	dropped_samples	3107.408585	Dropped 3 samples	n/a	n/a	n/a	n/a	n/a	n/a	n/a	3	UoHDataOffsetStream
269.741874	0.000000	dropped_samples	3107.449179	Dropped 9 samples	n/a	n/a	n/a	n/a	n/a	n/a	n/a	9	UoHDataOffsetStream
270.270802	1.701006	nback_3	3107.978108	Steps:3 KeyPress:False Matched:False	1	n/a	3	False	False	n/a	n/a	n/a	n-backMarkers
270.387387	0.000000	dropped_samples	3108.094692	Dropped 3 samples	n/a	n/a	n/a	n/a	n/a	n/a	n/a	3	UoHDataOffsetStream
270.565444	0.000000	dropped_samples	3108.272749	Dropped 2 samples	n/a	n/a	n/a	n/a	n/a	n/a	n/a	2	UoHDataOffsetStream
270.638706	0.000000	dropped_samples	3108.346011	Dropped 2 samples	n/a	n/a	n/a	n/a	n/a	n/a	n/a	2	UoHDataOffsetStream
270.674495	0.000000	dropped_samples	3108.381800	Dropped 3 samples	n/a	n/a	n/a	n/a	n/a	n/a	n/a	3	UoHDataOffsetStream
271.133452	0.000000	dropped_samples	3108.840757	Dropped 2 samples	n/a	n/a	n/a	n/a	n/a	n/a	n/a	2	UoHDataOffsetStream
271.971762	1.701006	nback_3	3109.679068	Steps:3 KeyPress:True Matched:False	0	n/a	3	True	False	n/a	n/a	n/a	n-backMarkers
273.267232	0.000000	dropped_samples	3110.974537	Dropped 2 samples	n/a	n/a	n/a	n/a	n/a	n/a	n/a	2	UoHDataOffsetStream
273.672980	1.701006	nback_3	3111.380286	Steps:3 KeyPress:False Matched:True	0	n/a	3	False	True	n/a	n/a	n/a	n-backMarkers
274.082680	0.000000	dropped_samples	3111.789985	Dropped 2 samples	n/a	n/a	n/a	n/a	n/a	n/a	n/a	2	UoHDataOffsetStream
274.155967	0.000000	dropped_samples	3111.863272	Dropped 1 samples	n/a	n/a	n/a	n/a	n/a	n/a	n/a	1	UoHDataOffsetStream
274.395318	0.000000	dropped_samples	3112.102623	Dropped 4 samples	n/a	n/a	n/a	n/a	n/a	n/a	n/a	4	UoHDataOffsetStream
274.564497	0.000000	dropped_samples	3112.271802	Dropped 3 samples	n/a	n/a	n/a	n/a	n/a	n/a	n/a	3	UoHDataOffsetStream
274.707826	0.000000	dropped_samples	3112.415131	Dropped 2 samples	n/a	n/a	n/a	n/a	n/a	n/a	n/a	2	UoHDataOffsetStream
275.374399	1.701006	nback_3	3113.081704	Steps:3 KeyPress:False Matched:False	1	n/a	3	False	False	n/a	n/a	n/a	n-backMarkers
275.475924	0.000000	dropped_samples	3113.183229	Dropped 2 samples	n/a	n/a	n/a	n/a	n/a	n/a	n/a	2	UoHDataOffsetStream
275.544449	0.000000	dropped_samples	3113.251754	Dropped 4 samples	n/a	n/a	n/a	n/a	n/a	n/a	n/a	4	UoHDataOffsetStream
275.797185	0.000000	dropped_samples	3113.504490	Dropped 3 samples	n/a	n/a	n/a	n/a	n/a	n/a	n/a	3	UoHDataOffsetStream
275.889050	0.000000	dropped_samples	3113.596355	Dropped 3 samples	n/a	n/a	n/a	n/a	n/a	n/a	n/a	3	UoHDataOffsetStream
275.933295	0.000000	dropped_samples	3113.640600	Dropped 2 samples	n/a	n/a	n/a	n/a	n/a	n/a	n/a	2	UoHDataOffsetStream
276.679057	0.000000	dropped_samples	3114.386362	Dropped 2 samples	n/a	n/a	n/a	n/a	n/a	n/a	n/a	2	UoHDataOffsetStream
276.680348	0.000000	dropped_samples	3114.387653	Dropped 3 samples	n/a	n/a	n/a	n/a	n/a	n/a	n/a	3	UoHDataOffsetStream
276.685898	0.000000	dropped_samples	3114.393203	Dropped 3 samples	n/a	n/a	n/a	n/a	n/a	n/a	n/a	3	UoHDataOffsetStream
276.724331	0.000000	dropped_samples	3114.431636	Dropped 8 samples	n/a	n/a	n/a	n/a	n/a	n/a	n/a	8	UoHDataOffsetStream
277.075599	1.701006	nback_3	3114.782905	Steps:3 KeyPress:False Matched:False	1	n/a	3	False	False	n/a	n/a	n/a	n-backMarkers
277.564132	0.000000	dropped_samples	3115.271437	Dropped 2 samples	n/a	n/a	n/a	n/a	n/a	n/a	n/a	2	UoHDataOffsetStream
278.286818	0.000000	dropped_samples	3115.994123	Dropped 2 samples	n/a	n/a	n/a	n/a	n/a	n/a	n/a	2	UoHDataOffsetStream
278.330845	0.000000	dropped_samples	3116.038150	Dropped 1 samples	n/a	n/a	n/a	n/a	n/a	n/a	n/a	1	UoHDataOffsetStream
278.692064	0.000000	dropped_samples	3116.399369	Dropped 3 samples	n/a	n/a	n/a	n/a	n/a	n/a	n/a	3	UoHDataOffsetStream
278.775942	1.701006	nback_3	3116.483248	Steps:3 KeyPress:False Matched:False	1	n/a	3	False	False	n/a	n/a	n/a	n-backMarkers
279.414798	0.000000	dropped_samples	3117.122103	Dropped 2 samples	n/a	n/a	n/a	n/a	n/a	n/a	n/a	2	UoHDataOffsetStream
280.156944	0.000000	dropped_samples	3117.864249	Dropped 3 samples	n/a	n/a	n/a	n/a	n/a	n/a	n/a	3	UoHDataOffsetStream
280.476981	1.701006	nback_3	3118.184287	Steps:3 KeyPress:True Matched:False	0	n/a	3	True	False	n/a	n/a	n/a	n-backMarkers
280.689661	0.000000	dropped_samples	3118.396966	Dropped 3 samples	n/a	n/a	n/a	n/a	n/a	n/a	n/a	3	UoHDataOffsetStream
280.733284	0.000000	dropped_samples	3118.440589	Dropped 15 samples	n/a	n/a	n/a	n/a	n/a	n/a	n/a	15	UoHDataOffsetStream
281.524833	0.000000	dropped_samples	3119.232138	Dropped 3 samples	n/a	n/a	n/a	n/a	n/a	n/a	n/a	3	UoHDataOffsetStream
282.179133	1.701006	nback_3	3119.886439	Steps:3 KeyPress:False Matched:False	1	n/a	3	False	False	n/a	n/a	n/a	n-backMarkers
282.546865	0.000000	dropped_samples	3120.254170	Dropped 3 samples	n/a	n/a	n/a	n/a	n/a	n/a	n/a	3	UoHDataOffsetStream
282.636042	0.000000	dropped_samples	3120.343347	Dropped 2 samples	n/a	n/a	n/a	n/a	n/a	n/a	n/a	2	UoHDataOffsetStream
282.676422	0.000000	dropped_samples	3120.383727	Dropped 7 samples	n/a	n/a	n/a	n/a	n/a	n/a	n/a	7	UoHDataOffsetStream
283.880349	1.701006	nback_3	3121.587655	Steps:3 KeyPress:False Matched:False	1	n/a	3	False	False	n/a	n/a	n/a	n-backMarkers
285.318054	0.000000	dropped_samples	3123.025359	Dropped 1 samples	n/a	n/a	n/a	n/a	n/a	n/a	n/a	1	UoHDataOffsetStream
286.350019	0.000000	dropped_samples	3124.057324	Dropped 2 samples	n/a	n/a	n/a	n/a	n/a	n/a	n/a	2	UoHDataOffsetStream
286.608549	0.000000	dropped_samples	3124.315854	Dropped 2 samples	n/a	n/a	n/a	n/a	n/a	n/a	n/a	2	UoHDataOffsetStream
287.359821	0.000000	dropped_samples	3125.067126	Dropped 1 samples	n/a	n/a	n/a	n/a	n/a	n/a	n/a	1	UoHDataOffsetStream
287.615008	0.000000	dropped_samples	3125.322313	Dropped 2 samples	n/a	n/a	n/a	n/a	n/a	n/a	n/a	2	UoHDataOffsetStream
288.443254	0.000000	dropped_samples	3126.150559	Dropped 3 samples	n/a	n/a	n/a	n/a	n/a	n/a	n/a	3	UoHDataOffsetStream
288.506741	0.000000	dropped_samples	3126.214046	Dropped 3 samples	n/a	n/a	n/a	n/a	n/a	n/a	n/a	3	UoHDataOffsetStream
288.677663	0.000000	dropped_samples	3126.384968	Dropped 3 samples	n/a	n/a	n/a	n/a	n/a	n/a	n/a	3	UoHDataOffsetStream
288.818997	0.000000	dropped_samples	3126.526302	Dropped 1 samples	n/a	n/a	n/a	n/a	n/a	n/a	n/a	1	UoHDataOffsetStream
292.085617	0.000000	dropped_samples	3129.792922	Dropped 1 samples	n/a	n/a	n/a	n/a	n/a	n/a	n/a	1	UoHDataOffsetStream
292.373682	0.000000	dropped_samples	3130.080987	Dropped 2 samples	n/a	n/a	n/a	n/a	n/a	n/a	n/a	2	UoHDataOffsetStream
292.569680	1.701006	nback_4	3130.276986	Steps:4 KeyPress:False Matched:False	1	n/a	4	False	False	n/a	n/a	n/a	n-backMarkers
292.754681	0.000000	dropped_samples	3130.461986	Dropped 3 samples	n/a	n/a	n/a	n/a	n/a	n/a	n/a	3	UoHDataOffsetStream
293.453378	0.000000	dropped_samples	3131.160683	Dropped 3 samples	n/a	n/a	n/a	n/a	n/a	n/a	n/a	3	UoHDataOffsetStream
293.667692	0.000000	dropped_samples	3131.374997	Dropped 2 samples	n/a	n/a	n/a	n/a	n/a	n/a	n/a	2	UoHDataOffsetStream
294.270794	1.701006	nback_4	3131.978100	Steps:4 KeyPress:False Matched:True	0	n/a	4	False	True	n/a	n/a	n/a	n-backMarkers
294.665760	0.000000	dropped_samples	3132.373065	Dropped 3 samples	n/a	n/a	n/a	n/a	n/a	n/a	n/a	3	UoHDataOffsetStream
294.820056	0.000000	dropped_samples	3132.527361	Dropped 13 samples	n/a	n/a	n/a	n/a	n/a	n/a	n/a	13	UoHDataOffsetStream
295.972125	1.701006	nback_4	3133.679431	Steps:4 KeyPress:False Matched:False	1	n/a	4	False	False	n/a	n/a	n/a	n-backMarkers
297.673854	1.701006	nback_4	3135.381160	Steps:4 KeyPress:False Matched:True	0	n/a	4	False	True	n/a	n/a	n/a	n-backMarkers
299.166457	0.000000	dropped_samples	3136.873762	Dropped 3 samples	n/a	n/a	n/a	n/a	n/a	n/a	n/a	3	UoHDataOffsetStream
299.214519	0.000000	dropped_samples	3136.921824	Dropped 31 samples	n/a	n/a	n/a	n/a	n/a	n/a	n/a	31	UoHDataOffsetStream
299.375617	1.701006	nback_4	3137.082923	Steps:4 KeyPress:False Matched:False	1	n/a	4	False	False	n/a	n/a	n/a	n-backMarkers
299.381291	0.000000	dropped_samples	3137.088596	Dropped 3 samples	n/a	n/a	n/a	n/a	n/a	n/a	n/a	3	UoHDataOffsetStream
299.517974	0.000000	dropped_samples	3137.225279	Dropped 1 samples	n/a	n/a	n/a	n/a	n/a	n/a	n/a	1	UoHDataOffsetStream
299.669284	0.000000	dropped_samples	3137.376589	Dropped 1 samples	n/a	n/a	n/a	n/a	n/a	n/a	n/a	1	UoHDataOffsetStream
300.244203	0.000000	dropped_samples	3137.951508	Dropped 3 samples	n/a	n/a	n/a	n/a	n/a	n/a	n/a	3	UoHDataOffsetStream
300.488036	0.000000	dropped_samples	3138.195341	Dropped 3 samples	n/a	n/a	n/a	n/a	n/a	n/a	n/a	3	UoHDataOffsetStream
300.557526	0.000000	dropped_samples	3138.264831	Dropped 2 samples	n/a	n/a	n/a	n/a	n/a	n/a	n/a	2	UoHDataOffsetStream
300.869820	0.000000	dropped_samples	3138.577125	Dropped 1 samples	n/a	n/a	n/a	n/a	n/a	n/a	n/a	1	UoHDataOffsetStream
301.075705	1.701006	nback_4	3138.783010	Steps:4 KeyPress:False Matched:False	1	n/a	4	False	False	n/a	n/a	n/a	n-backMarkers
301.323984	0.000000	dropped_samples	3139.031289	Dropped 2 samples	n/a	n/a	n/a	n/a	n/a	n/a	n/a	2	UoHDataOffsetStream
302.776725	1.701006	nback_4	3140.484031	Steps:4 KeyPress:False Matched:False	1	n/a	4	False	False	n/a	n/a	n/a	n-backMarkers
304.478362	1.701006	nback_4	3142.185667	Steps:4 KeyPress:True Matched:True	1	n/a	4	True	True	n/a	n/a	n/a	n-backMarkers
305.284135	0.000000	dropped_samples	3142.991440	Dropped 3 samples	n/a	n/a	n/a	n/a	n/a	n/a	n/a	3	UoHDataOffsetStream
306.180585	1.701006	nback_4	3143.887891	Steps:4 KeyPress:False Matched:True	0	n/a	4	False	True	n/a	n/a	n/a	n-backMarkers
307.881881	1.701006	nback_4	3145.589186	Steps:4 KeyPress:False Matched:False	1	n/a	4	False	False	n/a	n/a	n/a	n-backMarkers
309.583449	1.701006	nback_4	3147.290754	Steps:4 KeyPress:False Matched:False	1	n/a	4	False	False	n/a	n/a	n/a	n-backMarkers
310.034883	0.000000	dropped_samples	3147.742188	Dropped 1 samples	n/a	n/a	n/a	n/a	n/a	n/a	n/a	1	UoHDataOffsetStream
310.695077	0.000000	dropped_samples	3148.402382	Dropped 2 samples	n/a	n/a	n/a	n/a	n/a	n/a	n/a	2	UoHDataOffsetStream
311.284678	1.701006	nback_4	3148.991984	Steps:4 KeyPress:True Matched:False	0	n/a	4	True	False	n/a	n/a	n/a	n-backMarkers
311.407806	0.000000	dropped_samples	3149.115111	Dropped 2 samples	n/a	n/a	n/a	n/a	n/a	n/a	n/a	2	UoHDataOffsetStream
312.364245	0.000000	dropped_samples	3150.071550	Dropped 2 samples	n/a	n/a	n/a	n/a	n/a	n/a	n/a	2	UoHDataOffsetStream
312.985619	1.701006	nback_4	3150.692925	Steps:4 KeyPress:False Matched:True	0	n/a	4	False	True	n/a	n/a	n/a	n-backMarkers
313.828850	0.000000	dropped_samples	3151.536155	Dropped 3 samples	n/a	n/a	n/a	n/a	n/a	n/a	n/a	3	UoHDataOffsetStream
314.686650	1.701006	nback_4	3152.393956	Steps:4 KeyPress:True Matched:False	0	n/a	4	True	False	n/a	n/a	n/a	n-backMarkers
315.391467	0.000000	dropped_samples	3153.098772	Dropped 1 samples	n/a	n/a	n/a	n/a	n/a	n/a	n/a	1	UoHDataOffsetStream
316.387442	1.701006	nback_4	3154.094747	Steps:4 KeyPress:True Matched:True	1	n/a	4	True	True	n/a	n/a	n/a	n-backMarkers
318.088270	1.701006	nback_4	3155.795576	Steps:4 KeyPress:False Matched:False	1	n/a	4	False	False	n/a	n/a	n/a	n-backMarkers
318.365008	0.000000	dropped_samples	3156.072313	Dropped 1 samples	n/a	n/a	n/a	n/a	n/a	n/a	n/a	1	UoHDataOffsetStream
319.788519	1.701006	nback_4	3157.495824	Steps:4 KeyPress:False Matched:False	1	n/a	4	False	False	n/a	n/a	n/a	n-backMarkers
321.489308	1.701006	nback_4	3159.196614	Steps:4 KeyPress:True Matched:False	0	n/a	4	True	False	n/a	n/a	n/a	n-backMarkers
321.631701	0.000000	dropped_samples	3159.339006	Dropped 1 samples	n/a	n/a	n/a	n/a	n/a	n/a	n/a	1	UoHDataOffsetStream
323.190163	1.701006	nback_4	3160.897469	Steps:4 KeyPress:True Matched:True	1	n/a	4	True	True	n/a	n/a	n/a	n-backMarkers
323.863289	0.000000	dropped_samples	3161.570594	Dropped 1 samples	n/a	n/a	n/a	n/a	n/a	n/a	n/a	1	UoHDataOffsetStream
324.507668	0.000000	dropped_samples	3162.214973	Dropped 2 samples	n/a	n/a	n/a	n/a	n/a	n/a	n/a	2	UoHDataOffsetStream
324.891735	1.701006	nback_4	3162.599041	Steps:4 KeyPress:False Matched:False	1	n/a	4	False	False	n/a	n/a	n/a	n-backMarkers
325.595967	0.000000	finished_tutorial_n-back	3163.303273	Finished tutorial n-back	n/a	n/a	n/a	n/a	n/a	n/a	n/a	n/a	n-backMarkers
328.425451	0.000000	dropped_samples	3166.132757	Dropped 3 samples	n/a	n/a	n/a	n/a	n/a	n/a	n/a	3	UoHDataOffsetStream
328.902105	0.000000	dropped_samples	3166.609410	Dropped 1 samples	n/a	n/a	n/a	n/a	n/a	n/a	n/a	1	UoHDataOffsetStream
329.453824	0.000000	dropped_samples	3167.161129	Dropped 3 samples	n/a	n/a	n/a	n/a	n/a	n/a	n/a	3	UoHDataOffsetStream
330.171701	0.000000	dropped_samples	3167.879006	Dropped 1 samples	n/a	n/a	n/a	n/a	n/a	n/a	n/a	1	UoHDataOffsetStream
335.503664	0.000000	dropped_samples	3173.210969	Dropped 1 samples	n/a	n/a	n/a	n/a	n/a	n/a	n/a	1	UoHDataOffsetStream
340.684367	0.000000	dropped_samples	3178.391672	Dropped 1 samples	n/a	n/a	n/a	n/a	n/a	n/a	n/a	1	UoHDataOffsetStream
341.070077	0.000000	dropped_samples	3178.777382	Dropped 1 samples	n/a	n/a	n/a	n/a	n/a	n/a	n/a	1	UoHDataOffsetStream
346.758554	0.000000	dropped_samples	3184.465859	Dropped 3 samples	n/a	n/a	n/a	n/a	n/a	n/a	n/a	3	UoHDataOffsetStream
347.022244	0.000000	dropped_samples	3184.729549	Dropped 3 samples	n/a	n/a	n/a	n/a	n/a	n/a	n/a	3	UoHDataOffsetStream
347.360639	0.000000	dropped_samples	3185.067944	Dropped 1 samples	n/a	n/a	n/a	n/a	n/a	n/a	n/a	1	UoHDataOffsetStream
347.436192	0.000000	dropped_samples	3185.143497	Dropped 2 samples	n/a	n/a	n/a	n/a	n/a	n/a	n/a	2	UoHDataOffsetStream
347.598541	0.000000	dropped_samples	3185.305846	Dropped 3 samples	n/a	n/a	n/a	n/a	n/a	n/a	n/a	3	UoHDataOffsetStream
348.511491	0.000000	dropped_samples	3186.218796	Dropped 1 samples	n/a	n/a	n/a	n/a	n/a	n/a	n/a	1	UoHDataOffsetStream
348.701939	0.000000	dropped_samples	3186.409244	Dropped 3 samples	n/a	n/a	n/a	n/a	n/a	n/a	n/a	3	UoHDataOffsetStream
350.372129	0.000000	started_n-back	3188.079434	Started n-back	n/a	n/a	n/a	n/a	n/a	n/a	n/a	n/a	n-backMarkers
352.085706	0.000000	dropped_samples	3189.793011	Dropped 3 samples	n/a	n/a	n/a	n/a	n/a	n/a	n/a	3	UoHDataOffsetStream
353.560042	0.000000	dropped_samples	3191.267347	Dropped 2 samples	n/a	n/a	n/a	n/a	n/a	n/a	n/a	2	UoHDataOffsetStream
353.659676	0.000000	dropped_samples	3191.366981	Dropped 2 samples	n/a	n/a	n/a	n/a	n/a	n/a	n/a	2	UoHDataOffsetStream
353.692215	0.000000	dropped_samples	3191.399520	Dropped 2 samples	n/a	n/a	n/a	n/a	n/a	n/a	n/a	2	UoHDataOffsetStream
356.958876	0.000000	dropped_samples	3194.666181	Dropped 1 samples	n/a	n/a	n/a	n/a	n/a	n/a	n/a	1	UoHDataOffsetStream
357.271261	0.000000	dropped_samples	3194.978566	Dropped 1 samples	n/a	n/a	n/a	n/a	n/a	n/a	n/a	1	UoHDataOffsetStream
357.782282	0.000000	dropped_samples	3195.489587	Dropped 3 samples	n/a	n/a	n/a	n/a	n/a	n/a	n/a	3	UoHDataOffsetStream
357.989464	0.000000	dropped_samples	3195.696769	Dropped 3 samples	n/a	n/a	n/a	n/a	n/a	n/a	n/a	3	UoHDataOffsetStream
358.375389	1.701006	nback_1	3196.082695	Steps:1 KeyPress:False Matched:False	1	n/a	1	False	False	n/a	n/a	n/a	n-backMarkers
358.652430	0.000000	dropped_samples	3196.359735	Dropped 3 samples	n/a	n/a	n/a	n/a	n/a	n/a	n/a	3	UoHDataOffsetStream
358.712054	0.000000	dropped_samples	3196.419359	Dropped 2 samples	n/a	n/a	n/a	n/a	n/a	n/a	n/a	2	UoHDataOffsetStream
358.755636	0.000000	dropped_samples	3196.462941	Dropped 10 samples	n/a	n/a	n/a	n/a	n/a	n/a	n/a	10	UoHDataOffsetStream
359.693138	0.000000	dropped_samples	3197.400443	Dropped 3 samples	n/a	n/a	n/a	n/a	n/a	n/a	n/a	3	UoHDataOffsetStream
359.697619	0.000000	dropped_samples	3197.404924	Dropped 2 samples	n/a	n/a	n/a	n/a	n/a	n/a	n/a	2	UoHDataOffsetStream
359.782688	0.000000	dropped_samples	3197.489993	Dropped 3 samples	n/a	n/a	n/a	n/a	n/a	n/a	n/a	3	UoHDataOffsetStream
359.791298	0.000000	dropped_samples	3197.498603	Dropped 3 samples	n/a	n/a	n/a	n/a	n/a	n/a	n/a	3	UoHDataOffsetStream
359.839864	0.000000	dropped_samples	3197.547170	Dropped 8 samples	n/a	n/a	n/a	n/a	n/a	n/a	n/a	8	UoHDataOffsetStream
360.076387	1.701006	nback_1	3197.783693	Steps:1 KeyPress:False Matched:False	1	n/a	1	False	False	n/a	n/a	n/a	n-backMarkers
360.438973	0.000000	dropped_samples	3198.146278	Dropped 3 samples	n/a	n/a	n/a	n/a	n/a	n/a	n/a	3	UoHDataOffsetStream
360.723450	0.000000	dropped_samples	3198.430755	Dropped 2 samples	n/a	n/a	n/a	n/a	n/a	n/a	n/a	2	UoHDataOffsetStream
361.255695	0.000000	dropped_samples	3198.963000	Dropped 3 samples	n/a	n/a	n/a	n/a	n/a	n/a	n/a	3	UoHDataOffsetStream
361.778071	1.701006	nback_1	3199.485377	Steps:1 KeyPress:False Matched:False	1	n/a	1	False	False	n/a	n/a	n/a	n-backMarkers
362.359355	0.000000	dropped_samples	3200.066660	Dropped 2 samples	n/a	n/a	n/a	n/a	n/a	n/a	n/a	2	UoHDataOffsetStream
362.862194	0.000000	dropped_samples	3200.569499	Dropped 1 samples	n/a	n/a	n/a	n/a	n/a	n/a	n/a	1	UoHDataOffsetStream
363.478110	1.701006	nback_1	3201.185416	Steps:1 KeyPress:True Matched:False	0	n/a	1	True	False	n/a	n/a	n/a	n-backMarkers
363.487180	0.000000	dropped_samples	3201.194485	Dropped 2 samples	n/a	n/a	n/a	n/a	n/a	n/a	n/a	2	UoHDataOffsetStream
364.447858	0.000000	dropped_samples	3202.155163	Dropped 1 samples	n/a	n/a	n/a	n/a	n/a	n/a	n/a	1	UoHDataOffsetStream
364.772352	0.000000	dropped_samples	3202.479658	Dropped 2 samples	n/a	n/a	n/a	n/a	n/a	n/a	n/a	2	UoHDataOffsetStream
364.805549	0.000000	dropped_samples	3202.512854	Dropped 3 samples	n/a	n/a	n/a	n/a	n/a	n/a	n/a	3	UoHDataOffsetStream
365.179453	1.701006	nback_1	3202.886758	Steps:1 KeyPress:False Matched:True	0	n/a	1	False	True	n/a	n/a	n/a	n-backMarkers
365.514661	0.000000	dropped_samples	3203.221966	Dropped 2 samples	n/a	n/a	n/a	n/a	n/a	n/a	n/a	2	UoHDataOffsetStream
365.685183	0.000000	dropped_samples	3203.392489	Dropped 3 samples	n/a	n/a	n/a	n/a	n/a	n/a	n/a	3	UoHDataOffsetStream
365.718651	0.000000	dropped_samples	3203.425956	Dropped 9 samples	n/a	n/a	n/a	n/a	n/a	n/a	n/a	9	UoHDataOffsetStream
366.608540	0.000000	dropped_samples	3204.315845	Dropped 3 samples	n/a	n/a	n/a	n/a	n/a	n/a	n/a	3	UoHDataOffsetStream
366.610545	0.000000	dropped_samples	3204.317850	Dropped 6 samples	n/a	n/a	n/a	n/a	n/a	n/a	n/a	6	UoHDataOffsetStream
366.656111	0.000000	dropped_samples	3204.363416	Dropped 5 samples	n/a	n/a	n/a	n/a	n/a	n/a	n/a	5	UoHDataOffsetStream
366.880762	1.701006	nback_1	3204.588068	Steps:1 KeyPress:False Matched:False	1	n/a	1	False	False	n/a	n/a	n/a	n-backMarkers
367.398474	0.000000	dropped_samples	3205.105779	Dropped 1 samples	n/a	n/a	n/a	n/a	n/a	n/a	n/a	1	UoHDataOffsetStream
368.035731	0.000000	dropped_samples	3205.743036	Dropped 2 samples	n/a	n/a	n/a	n/a	n/a	n/a	n/a	2	UoHDataOffsetStream
368.076488	0.000000	dropped_samples	3205.783793	Dropped 2 samples	n/a	n/a	n/a	n/a	n/a	n/a	n/a	2	UoHDataOffsetStream
368.477467	0.000000	dropped_samples	3206.184772	Dropped 1 samples	n/a	n/a	n/a	n/a	n/a	n/a	n/a	1	UoHDataOffsetStream
368.581834	1.701006	nback_1	3206.289140	Steps:1 KeyPress:True Matched:False	0	n/a	1	True	False	n/a	n/a	n/a	n-backMarkers
368.887500	0.000000	dropped_samples	3206.594805	Dropped 1 samples	n/a	n/a	n/a	n/a	n/a	n/a	n/a	1	UoHDataOffsetStream
370.281632	1.701006	nback_1	3207.988937	Steps:1 KeyPress:False Matched:True	0	n/a	1	False	True	n/a	n/a	n/a	n-backMarkers
370.676327	0.000000	dropped_samples	3208.383632	Dropped 9 samples	n/a	n/a	n/a	n/a	n/a	n/a	n/a	9	UoHDataOffsetStream
371.346709	0.000000	dropped_samples	3209.054014	Dropped 2 samples	n/a	n/a	n/a	n/a	n/a	n/a	n/a	2	UoHDataOffsetStream
371.407225	0.000000	dropped_samples	3209.114531	Dropped 1 samples	n/a	n/a	n/a	n/a	n/a	n/a	n/a	1	UoHDataOffsetStream
371.652647	0.000000	dropped_samples	3209.359952	Dropped 2 samples	n/a	n/a	n/a	n/a	n/a	n/a	n/a	2	UoHDataOffsetStream
371.695108	0.000000	dropped_samples	3209.402413	Dropped 3 samples	n/a	n/a	n/a	n/a	n/a	n/a	n/a	3	UoHDataOffsetStream
371.982573	1.701006	nback_1	3209.689878	Steps:1 KeyPress:False Matched:True	0	n/a	1	False	True	n/a	n/a	n/a	n-backMarkers
371.983268	0.000000	dropped_samples	3209.690573	Dropped 2 samples	n/a	n/a	n/a	n/a	n/a	n/a	n/a	2	UoHDataOffsetStream
372.437411	0.000000	dropped_samples	3210.144716	Dropped 2 samples	n/a	n/a	n/a	n/a	n/a	n/a	n/a	2	UoHDataOffsetStream
372.701006	0.000000	dropped_samples	3210.408311	Dropped 3 samples	n/a	n/a	n/a	n/a	n/a	n/a	n/a	3	UoHDataOffsetStream
373.159989	0.000000	dropped_samples	3210.867294	Dropped 3 samples	n/a	n/a	n/a	n/a	n/a	n/a	n/a	3	UoHDataOffsetStream
373.467564	0.000000	dropped_samples	3211.174869	Dropped 2 samples	n/a	n/a	n/a	n/a	n/a	n/a	n/a	2	UoHDataOffsetStream
373.683331	1.701006	nback_1	3211.390637	Steps:1 KeyPress:False Matched:False	1	n/a	1	False	False	n/a	n/a	n/a	n-backMarkers
375.152287	0.000000	dropped_samples	3212.859592	Dropped 1 samples	n/a	n/a	n/a	n/a	n/a	n/a	n/a	1	UoHDataOffsetStream
375.383467	1.701006	nback_1	3213.090773	Steps:1 KeyPress:True Matched:False	0	n/a	1	True	False	n/a	n/a	n/a	n-backMarkers
376.709792	0.000000	dropped_samples	3214.417097	Dropped 2 samples	n/a	n/a	n/a	n/a	n/a	n/a	n/a	2	UoHDataOffsetStream
377.083738	1.701006	nback_1	3214.791044	Steps:1 KeyPress:False Matched:False	1	n/a	1	False	False	n/a	n/a	n/a	n-backMarkers
377.707967	0.000000	dropped_samples	3215.415272	Dropped 6 samples	n/a	n/a	n/a	n/a	n/a	n/a	n/a	6	UoHDataOffsetStream
377.740090	0.000000	dropped_samples	3215.447395	Dropped 1 samples	n/a	n/a	n/a	n/a	n/a	n/a	n/a	1	UoHDataOffsetStream
378.615057	0.000000	dropped_samples	3216.322362	Dropped 4 samples	n/a	n/a	n/a	n/a	n/a	n/a	n/a	4	UoHDataOffsetStream
378.669448	0.000000	dropped_samples	3216.376754	Dropped 2 samples	n/a	n/a	n/a	n/a	n/a	n/a	n/a	2	UoHDataOffsetStream
378.701993	0.000000	dropped_samples	3216.409298	Dropped 1 samples	n/a	n/a	n/a	n/a	n/a	n/a	n/a	1	UoHDataOffsetStream
378.784415	1.701006	nback_1	3216.491721	Steps:1 KeyPress:True Matched:False	0	n/a	1	True	False	n/a	n/a	n/a	n-backMarkers
380.484467	1.701006	nback_1	3218.191772	Steps:1 KeyPress:False Matched:True	0	n/a	1	False	True	n/a	n/a	n/a	n-backMarkers
380.767425	0.000000	dropped_samples	3218.474730	Dropped 1 samples	n/a	n/a	n/a	n/a	n/a	n/a	n/a	1	UoHDataOffsetStream
382.186079	1.701006	nback_1	3219.893385	Steps:1 KeyPress:False Matched:False	1	n/a	1	False	False	n/a	n/a	n/a	n-backMarkers
383.433930	0.000000	dropped_samples	3221.141235	Dropped 3 samples	n/a	n/a	n/a	n/a	n/a	n/a	n/a	3	UoHDataOffsetStream
383.521605	0.000000	dropped_samples	3221.228910	Dropped 2 samples	n/a	n/a	n/a	n/a	n/a	n/a	n/a	2	UoHDataOffsetStream
383.551196	0.000000	dropped_samples	3221.258501	Dropped 1 samples	n/a	n/a	n/a	n/a	n/a	n/a	n/a	1	UoHDataOffsetStream
383.887297	1.701006	nback_1	3221.594603	Steps:1 KeyPress:True Matched:False	0	n/a	1	True	False	n/a	n/a	n/a	n-backMarkers
384.444127	0.000000	dropped_samples	3222.151432	Dropped 3 samples	n/a	n/a	n/a	n/a	n/a	n/a	n/a	3	UoHDataOffsetStream
385.587856	1.701006	nback_1	3223.295162	Steps:1 KeyPress:False Matched:True	0	n/a	1	False	True	n/a	n/a	n/a	n-backMarkers
386.910011	0.000000	dropped_samples	3224.617316	Dropped 1 samples	n/a	n/a	n/a	n/a	n/a	n/a	n/a	1	UoHDataOffsetStream
387.288483	1.701006	nback_1	3224.995789	Steps:1 KeyPress:False Matched:True	0	n/a	1	False	True	n/a	n/a	n/a	n-backMarkers
388.086835	0.000000	dropped_samples	3225.794141	Dropped 3 samples	n/a	n/a	n/a	n/a	n/a	n/a	n/a	3	UoHDataOffsetStream
388.929296	0.000000	dropped_samples	3226.636601	Dropped 1 samples	n/a	n/a	n/a	n/a	n/a	n/a	n/a	1	UoHDataOffsetStream
388.982637	0.000000	dropped_samples	3226.689942	Dropped 3 samples	n/a	n/a	n/a	n/a	n/a	n/a	n/a	3	UoHDataOffsetStream
388.986736	0.000000	dropped_samples	3226.694041	Dropped 16 samples	n/a	n/a	n/a	n/a	n/a	n/a	n/a	16	UoHDataOffsetStream
388.989394	1.701006	nback_1	3226.696700	Steps:1 KeyPress:False Matched:False	1	n/a	1	False	False	n/a	n/a	n/a	n-backMarkers
389.473689	0.000000	dropped_samples	3227.180994	Dropped 3 samples	n/a	n/a	n/a	n/a	n/a	n/a	n/a	3	UoHDataOffsetStream
389.478653	0.000000	dropped_samples	3227.185959	Dropped 3 samples	n/a	n/a	n/a	n/a	n/a	n/a	n/a	3	UoHDataOffsetStream
389.629448	0.000000	dropped_samples	3227.336753	Dropped 3 samples	n/a	n/a	n/a	n/a	n/a	n/a	n/a	3	UoHDataOffsetStream
389.668839	0.000000	dropped_samples	3227.376144	Dropped 2 samples	n/a	n/a	n/a	n/a	n/a	n/a	n/a	2	UoHDataOffsetStream
390.127771	0.000000	dropped_samples	3227.835076	Dropped 1 samples	n/a	n/a	n/a	n/a	n/a	n/a	n/a	1	UoHDataOffsetStream
390.401305	0.000000	dropped_samples	3228.108610	Dropped 3 samples	n/a	n/a	n/a	n/a	n/a	n/a	n/a	3	UoHDataOffsetStream
390.691146	1.701006	nback_1	3228.398452	Steps:1 KeyPress:False Matched:False	1	n/a	1	False	False	n/a	n/a	n/a	n-backMarkers
390.727329	0.000000	dropped_samples	3228.434634	Dropped 1 samples	n/a	n/a	n/a	n/a	n/a	n/a	n/a	1	UoHDataOffsetStream
390.936822	0.000000	dropped_samples	3228.644127	Dropped 3 samples	n/a	n/a	n/a	n/a	n/a	n/a	n/a	3	UoHDataOffsetStream
390.943576	0.000000	dropped_samples	3228.650881	Dropped 3 samples	n/a	n/a	n/a	n/a	n/a	n/a	n/a	3	UoHDataOffsetStream
390.992019	0.000000	dropped_samples	3228.699324	Dropped 12 samples	n/a	n/a	n/a	n/a	n/a	n/a	n/a	12	UoHDataOffsetStream
391.807499	0.000000	dropped_samples	3229.514804	Dropped 3 samples	n/a	n/a	n/a	n/a	n/a	n/a	n/a	3	UoHDataOffsetStream
392.392145	1.701006	nback_1	3230.099450	Steps:1 KeyPress:True Matched:False	0	n/a	1	True	False	n/a	n/a	n/a	n-backMarkers
394.093509	1.701006	nback_1	3231.800814	Steps:1 KeyPress:False Matched:True	0	n/a	1	False	True	n/a	n/a	n/a	n-backMarkers
394.558316	0.000000	dropped_samples	3232.265621	Dropped 2 samples	n/a	n/a	n/a	n/a	n/a	n/a	n/a	2	UoHDataOffsetStream
394.568849	0.000000	dropped_samples	3232.276154	Dropped 2 samples	n/a	n/a	n/a	n/a	n/a	n/a	n/a	2	UoHDataOffsetStream
394.636822	0.000000	dropped_samples	3232.344127	Dropped 2 samples	n/a	n/a	n/a	n/a	n/a	n/a	n/a	2	UoHDataOffsetStream
394.766830	0.000000	dropped_samples	3232.474135	Dropped 3 samples	n/a	n/a	n/a	n/a	n/a	n/a	n/a	3	UoHDataOffsetStream
395.476767	0.000000	dropped_samples	3233.184072	Dropped 2 samples	n/a	n/a	n/a	n/a	n/a	n/a	n/a	2	UoHDataOffsetStream
395.794920	1.701006	nback_1	3233.502226	Steps:1 KeyPress:False Matched:False	1	n/a	1	False	False	n/a	n/a	n/a	n-backMarkers
396.623484	0.000000	dropped_samples	3234.330789	Dropped 1 samples	n/a	n/a	n/a	n/a	n/a	n/a	n/a	1	UoHDataOffsetStream
396.718245	0.000000	dropped_samples	3234.425551	Dropped 1 samples	n/a	n/a	n/a	n/a	n/a	n/a	n/a	1	UoHDataOffsetStream
396.724775	0.000000	dropped_samples	3234.432080	Dropped 2 samples	n/a	n/a	n/a	n/a	n/a	n/a	n/a	2	UoHDataOffsetStream
396.773303	0.000000	dropped_samples	3234.480608	Dropped 11 samples	n/a	n/a	n/a	n/a	n/a	n/a	n/a	11	UoHDataOffsetStream
397.495401	1.701006	nback_1	3235.202707	Steps:1 KeyPress:True Matched:False	0	n/a	1	True	False	n/a	n/a	n/a	n-backMarkers
397.768080	0.000000	dropped_samples	3235.475385	Dropped 3 samples	n/a	n/a	n/a	n/a	n/a	n/a	n/a	3	UoHDataOffsetStream
397.825351	0.000000	dropped_samples	3235.532656	Dropped 3 samples	n/a	n/a	n/a	n/a	n/a	n/a	n/a	3	UoHDataOffsetStream
399.195383	1.701006	nback_1	3236.902688	Steps:1 KeyPress:False Matched:True	0	n/a	1	False	True	n/a	n/a	n/a	n-backMarkers
400.715646	0.000000	dropped_samples	3238.422951	Dropped 2 samples	n/a	n/a	n/a	n/a	n/a	n/a	n/a	2	UoHDataOffsetStream
400.719332	0.000000	dropped_samples	3238.426637	Dropped 10 samples	n/a	n/a	n/a	n/a	n/a	n/a	n/a	10	UoHDataOffsetStream
400.757705	0.000000	dropped_samples	3238.465010	Dropped 3 samples	n/a	n/a	n/a	n/a	n/a	n/a	n/a	3	UoHDataOffsetStream
400.896536	1.701006	nback_1	3238.603842	Steps:1 KeyPress:False Matched:True	0	n/a	1	False	True	n/a	n/a	n/a	n-backMarkers
401.792313	0.000000	dropped_samples	3239.499618	Dropped 2 samples	n/a	n/a	n/a	n/a	n/a	n/a	n/a	2	UoHDataOffsetStream
401.874428	0.000000	dropped_samples	3239.581733	Dropped 3 samples	n/a	n/a	n/a	n/a	n/a	n/a	n/a	3	UoHDataOffsetStream
401.875837	0.000000	dropped_samples	3239.583142	Dropped 3 samples	n/a	n/a	n/a	n/a	n/a	n/a	n/a	3	UoHDataOffsetStream
401.910045	0.000000	dropped_samples	3239.617350	Dropped 17 samples	n/a	n/a	n/a	n/a	n/a	n/a	n/a	17	UoHDataOffsetStream
402.597561	1.701006	nback_1	3240.304867	Steps:1 KeyPress:False Matched:False	1	n/a	1	False	False	n/a	n/a	n/a	n-backMarkers
402.884151	0.000000	dropped_samples	3240.591456	Dropped 1 samples	n/a	n/a	n/a	n/a	n/a	n/a	n/a	1	UoHDataOffsetStream
402.996639	0.000000	dropped_samples	3240.703944	Dropped 3 samples	n/a	n/a	n/a	n/a	n/a	n/a	n/a	3	UoHDataOffsetStream
402.997984	0.000000	dropped_samples	3240.705289	Dropped 3 samples	n/a	n/a	n/a	n/a	n/a	n/a	n/a	3	UoHDataOffsetStream
403.037991	0.000000	dropped_samples	3240.745296	Dropped 22 samples	n/a	n/a	n/a	n/a	n/a	n/a	n/a	22	UoHDataOffsetStream
403.423835	0.000000	dropped_samples	3241.131140	Dropped 2 samples	n/a	n/a	n/a	n/a	n/a	n/a	n/a	2	UoHDataOffsetStream
404.299393	1.701006	nback_1	3242.006698	Steps:1 KeyPress:False Matched:False	1	n/a	1	False	False	n/a	n/a	n/a	n-backMarkers
404.644478	0.000000	dropped_samples	3242.351783	Dropped 2 samples	n/a	n/a	n/a	n/a	n/a	n/a	n/a	2	UoHDataOffsetStream
405.367056	0.000000	dropped_samples	3243.074362	Dropped 2 samples	n/a	n/a	n/a	n/a	n/a	n/a	n/a	2	UoHDataOffsetStream
406.001317	1.701006	nback_1	3243.708623	Steps:1 KeyPress:True Matched:False	0	n/a	1	True	False	n/a	n/a	n/a	n-backMarkers
406.439374	0.000000	dropped_samples	3244.146679	Dropped 3 samples	n/a	n/a	n/a	n/a	n/a	n/a	n/a	3	UoHDataOffsetStream
406.738501	0.000000	dropped_samples	3244.445806	Dropped 1 samples	n/a	n/a	n/a	n/a	n/a	n/a	n/a	1	UoHDataOffsetStream
406.740795	0.000000	dropped_samples	3244.448100	Dropped 3 samples	n/a	n/a	n/a	n/a	n/a	n/a	n/a	3	UoHDataOffsetStream
406.784804	0.000000	dropped_samples	3244.492109	Dropped 7 samples	n/a	n/a	n/a	n/a	n/a	n/a	n/a	7	UoHDataOffsetStream
407.476603	0.000000	dropped_samples	3245.183908	Dropped 3 samples	n/a	n/a	n/a	n/a	n/a	n/a	n/a	3	UoHDataOffsetStream
407.696206	0.000000	dropped_samples	3245.403511	Dropped 3 samples	n/a	n/a	n/a	n/a	n/a	n/a	n/a	3	UoHDataOffsetStream
407.702235	1.701006	nback_1	3245.409541	Steps:1 KeyPress:False Matched:False	1	n/a	1	False	False	n/a	n/a	n/a	n-backMarkers
408.705670	0.000000	dropped_samples	3246.412975	Dropped 2 samples	n/a	n/a	n/a	n/a	n/a	n/a	n/a	2	UoHDataOffsetStream
408.774577	0.000000	dropped_samples	3246.481882	Dropped 3 samples	n/a	n/a	n/a	n/a	n/a	n/a	n/a	3	UoHDataOffsetStream
408.778455	0.000000	dropped_samples	3246.485760	Dropped 3 samples	n/a	n/a	n/a	n/a	n/a	n/a	n/a	3	UoHDataOffsetStream
408.824131	0.000000	dropped_samples	3246.531436	Dropped 7 samples	n/a	n/a	n/a	n/a	n/a	n/a	n/a	7	UoHDataOffsetStream
409.404092	1.701006	nback_1	3247.111398	Steps:1 KeyPress:True Matched:False	0	n/a	1	True	False	n/a	n/a	n/a	n-backMarkers
411.104181	1.701006	nback_1	3248.811487	Steps:1 KeyPress:False Matched:False	1	n/a	1	False	False	n/a	n/a	n/a	n-backMarkers
411.749692	0.000000	dropped_samples	3249.456997	Dropped 1 samples	n/a	n/a	n/a	n/a	n/a	n/a	n/a	1	UoHDataOffsetStream
412.805593	1.701006	nback_1	3250.512899	Steps:1 KeyPress:True Matched:False	0	n/a	1	True	False	n/a	n/a	n/a	n-backMarkers
412.910211	0.000000	dropped_samples	3250.617516	Dropped 1 samples	n/a	n/a	n/a	n/a	n/a	n/a	n/a	1	UoHDataOffsetStream
412.922761	0.000000	dropped_samples	3250.630066	Dropped 3 samples	n/a	n/a	n/a	n/a	n/a	n/a	n/a	3	UoHDataOffsetStream
412.930632	0.000000	dropped_samples	3250.637937	Dropped 3 samples	n/a	n/a	n/a	n/a	n/a	n/a	n/a	3	UoHDataOffsetStream
412.974594	0.000000	dropped_samples	3250.681899	Dropped 15 samples	n/a	n/a	n/a	n/a	n/a	n/a	n/a	15	UoHDataOffsetStream
413.631929	0.000000	dropped_samples	3251.339234	Dropped 4 samples	n/a	n/a	n/a	n/a	n/a	n/a	n/a	4	UoHDataOffsetStream
413.675990	0.000000	dropped_samples	3251.383295	Dropped 3 samples	n/a	n/a	n/a	n/a	n/a	n/a	n/a	3	UoHDataOffsetStream
413.716691	0.000000	dropped_samples	3251.423996	Dropped 6 samples	n/a	n/a	n/a	n/a	n/a	n/a	n/a	6	UoHDataOffsetStream
414.507086	1.701006	nback_1	3252.214392	Steps:1 KeyPress:False Matched:False	1	n/a	1	False	False	n/a	n/a	n/a	n-backMarkers
414.672161	0.000000	dropped_samples	3252.379466	Dropped 3 samples	n/a	n/a	n/a	n/a	n/a	n/a	n/a	3	UoHDataOffsetStream
414.682538	0.000000	dropped_samples	3252.389843	Dropped 3 samples	n/a	n/a	n/a	n/a	n/a	n/a	n/a	3	UoHDataOffsetStream
414.772145	0.000000	dropped_samples	3252.479450	Dropped 9 samples	n/a	n/a	n/a	n/a	n/a	n/a	n/a	9	UoHDataOffsetStream
416.207330	1.701006	nback_1	3253.914636	Steps:1 KeyPress:True Matched:False	0	n/a	1	True	False	n/a	n/a	n/a	n-backMarkers
416.383742	0.000000	dropped_samples	3254.091047	Dropped 3 samples	n/a	n/a	n/a	n/a	n/a	n/a	n/a	3	UoHDataOffsetStream
416.437087	0.000000	dropped_samples	3254.144392	Dropped 3 samples	n/a	n/a	n/a	n/a	n/a	n/a	n/a	3	UoHDataOffsetStream
416.480378	0.000000	dropped_samples	3254.187683	Dropped 6 samples	n/a	n/a	n/a	n/a	n/a	n/a	n/a	6	UoHDataOffsetStream
416.861437	0.000000	dropped_samples	3254.568742	Dropped 1 samples	n/a	n/a	n/a	n/a	n/a	n/a	n/a	1	UoHDataOffsetStream
417.271409	0.000000	dropped_samples	3254.978715	Dropped 3 samples	n/a	n/a	n/a	n/a	n/a	n/a	n/a	3	UoHDataOffsetStream
417.676668	0.000000	dropped_samples	3255.383974	Dropped 3 samples	n/a	n/a	n/a	n/a	n/a	n/a	n/a	3	UoHDataOffsetStream
417.907445	1.701006	nback_1	3255.614750	Steps:1 KeyPress:False Matched:False	1	n/a	1	False	False	n/a	n/a	n/a	n-backMarkers
418.723468	0.000000	dropped_samples	3256.430773	Dropped 2 samples	n/a	n/a	n/a	n/a	n/a	n/a	n/a	2	UoHDataOffsetStream
418.829434	0.000000	dropped_samples	3256.536739	Dropped 3 samples	n/a	n/a	n/a	n/a	n/a	n/a	n/a	3	UoHDataOffsetStream
418.877932	0.000000	dropped_samples	3256.585237	Dropped 7 samples	n/a	n/a	n/a	n/a	n/a	n/a	n/a	7	UoHDataOffsetStream
419.431891	0.000000	dropped_samples	3257.139196	Dropped 3 samples	n/a	n/a	n/a	n/a	n/a	n/a	n/a	3	UoHDataOffsetStream
419.477073	0.000000	dropped_samples	3257.184378	Dropped 3 samples	n/a	n/a	n/a	n/a	n/a	n/a	n/a	3	UoHDataOffsetStream
419.609302	1.701006	nback_1	3257.316607	Steps:1 KeyPress:True Matched:False	0	n/a	1	True	False	n/a	n/a	n/a	n-backMarkers
419.815301	0.000000	dropped_samples	3257.522606	Dropped 3 samples	n/a	n/a	n/a	n/a	n/a	n/a	n/a	3	UoHDataOffsetStream
420.758122	0.000000	dropped_samples	3258.465427	Dropped 8 samples	n/a	n/a	n/a	n/a	n/a	n/a	n/a	8	UoHDataOffsetStream
420.760803	0.000000	dropped_samples	3258.468108	Dropped 8 samples	n/a	n/a	n/a	n/a	n/a	n/a	n/a	8	UoHDataOffsetStream
420.796822	0.000000	dropped_samples	3258.504127	Dropped 1 samples	n/a	n/a	n/a	n/a	n/a	n/a	n/a	1	UoHDataOffsetStream
421.310217	1.701006	nback_1	3259.017522	Steps:1 KeyPress:False Matched:False	1	n/a	1	False	False	n/a	n/a	n/a	n-backMarkers
423.011330	1.701006	nback_1	3260.718635	Steps:1 KeyPress:True Matched:False	0	n/a	1	True	False	n/a	n/a	n/a	n-backMarkers
423.077119	0.000000	dropped_samples	3260.784424	Dropped 2 samples	n/a	n/a	n/a	n/a	n/a	n/a	n/a	2	UoHDataOffsetStream
424.204965	0.000000	dropped_samples	3261.912270	Dropped 2 samples	n/a	n/a	n/a	n/a	n/a	n/a	n/a	2	UoHDataOffsetStream
424.713140	1.701006	nback_1	3262.420445	Steps:1 KeyPress:False Matched:False	1	n/a	1	False	False	n/a	n/a	n/a	n-backMarkers
424.788953	0.000000	dropped_samples	3262.496258	Dropped 1 samples	n/a	n/a	n/a	n/a	n/a	n/a	n/a	1	UoHDataOffsetStream
424.852689	0.000000	dropped_samples	3262.559994	Dropped 3 samples	n/a	n/a	n/a	n/a	n/a	n/a	n/a	3	UoHDataOffsetStream
424.858642	0.000000	dropped_samples	3262.565947	Dropped 3 samples	n/a	n/a	n/a	n/a	n/a	n/a	n/a	3	UoHDataOffsetStream
424.903294	0.000000	dropped_samples	3262.610599	Dropped 15 samples	n/a	n/a	n/a	n/a	n/a	n/a	n/a	15	UoHDataOffsetStream
425.519015	0.000000	dropped_samples	3263.226320	Dropped 6 samples	n/a	n/a	n/a	n/a	n/a	n/a	n/a	6	UoHDataOffsetStream
425.637392	0.000000	dropped_samples	3263.344697	Dropped 4 samples	n/a	n/a	n/a	n/a	n/a	n/a	n/a	4	UoHDataOffsetStream
425.694257	0.000000	dropped_samples	3263.401562	Dropped 3 samples	n/a	n/a	n/a	n/a	n/a	n/a	n/a	3	UoHDataOffsetStream
426.414247	1.701006	nback_1	3264.121553	Steps:1 KeyPress:True Matched:False	0	n/a	1	True	False	n/a	n/a	n/a	n-backMarkers
426.700244	0.000000	dropped_samples	3264.407549	Dropped 3 samples	n/a	n/a	n/a	n/a	n/a	n/a	n/a	3	UoHDataOffsetStream
426.735436	0.000000	dropped_samples	3264.442741	Dropped 3 samples	n/a	n/a	n/a	n/a	n/a	n/a	n/a	3	UoHDataOffsetStream
426.736725	0.000000	dropped_samples	3264.444030	Dropped 8 samples	n/a	n/a	n/a	n/a	n/a	n/a	n/a	8	UoHDataOffsetStream
426.812782	0.000000	dropped_samples	3264.520087	Dropped 4 samples	n/a	n/a	n/a	n/a	n/a	n/a	n/a	4	UoHDataOffsetStream
426.846604	0.000000	dropped_samples	3264.553909	Dropped 1 samples	n/a	n/a	n/a	n/a	n/a	n/a	n/a	1	UoHDataOffsetStream
427.256873	0.000000	dropped_samples	3264.964178	Dropped 1 samples	n/a	n/a	n/a	n/a	n/a	n/a	n/a	1	UoHDataOffsetStream
428.116080	1.701006	nback_1	3265.823386	Steps:1 KeyPress:False Matched:False	1	n/a	1	False	False	n/a	n/a	n/a	n-backMarkers
428.980423	0.000000	dropped_samples	3266.687729	Dropped 3 samples	n/a	n/a	n/a	n/a	n/a	n/a	n/a	3	UoHDataOffsetStream
429.818113	1.701006	nback_1	3267.525418	Steps:1 KeyPress:True Matched:False	0	n/a	1	True	False	n/a	n/a	n/a	n-backMarkers
430.725058	0.000000	dropped_samples	3268.432363	Dropped 3 samples	n/a	n/a	n/a	n/a	n/a	n/a	n/a	3	UoHDataOffsetStream
430.883254	0.000000	dropped_samples	3268.590559	Dropped 6 samples	n/a	n/a	n/a	n/a	n/a	n/a	n/a	6	UoHDataOffsetStream
430.884599	0.000000	dropped_samples	3268.591905	Dropped 3 samples	n/a	n/a	n/a	n/a	n/a	n/a	n/a	3	UoHDataOffsetStream
430.928733	0.000000	dropped_samples	3268.636038	Dropped 9 samples	n/a	n/a	n/a	n/a	n/a	n/a	n/a	9	UoHDataOffsetStream
431.165018	0.000000	dropped_samples	3268.872323	Dropped 3 samples	n/a	n/a	n/a	n/a	n/a	n/a	n/a	3	UoHDataOffsetStream
431.192296	0.000000	dropped_samples	3268.899601	Dropped 3 samples	n/a	n/a	n/a	n/a	n/a	n/a	n/a	3	UoHDataOffsetStream
431.519192	1.701006	nback_1	3269.226497	Steps:1 KeyPress:False Matched:True	0	n/a	1	False	True	n/a	n/a	n/a	n-backMarkers
431.808134	0.000000	dropped_samples	3269.515439	Dropped 2 samples	n/a	n/a	n/a	n/a	n/a	n/a	n/a	2	UoHDataOffsetStream
431.885690	0.000000	dropped_samples	3269.592995	Dropped 5 samples	n/a	n/a	n/a	n/a	n/a	n/a	n/a	5	UoHDataOffsetStream
431.890792	0.000000	dropped_samples	3269.598097	Dropped 3 samples	n/a	n/a	n/a	n/a	n/a	n/a	n/a	3	UoHDataOffsetStream
431.934511	0.000000	dropped_samples	3269.641817	Dropped 7 samples	n/a	n/a	n/a	n/a	n/a	n/a	n/a	7	UoHDataOffsetStream
432.528339	0.000000	dropped_samples	3270.235645	Dropped 3 samples	n/a	n/a	n/a	n/a	n/a	n/a	n/a	3	UoHDataOffsetStream
432.625600	0.000000	dropped_samples	3270.332905	Dropped 6 samples	n/a	n/a	n/a	n/a	n/a	n/a	n/a	6	UoHDataOffsetStream
432.632973	0.000000	dropped_samples	3270.340278	Dropped 7 samples	n/a	n/a	n/a	n/a	n/a	n/a	n/a	7	UoHDataOffsetStream
432.872062	0.000000	dropped_samples	3270.579367	Dropped 2 samples	n/a	n/a	n/a	n/a	n/a	n/a	n/a	2	UoHDataOffsetStream
433.219868	1.701006	nback_1	3270.927174	Steps:1 KeyPress:False Matched:True	0	n/a	1	False	True	n/a	n/a	n/a	n-backMarkers
433.228590	0.000000	dropped_samples	3270.935895	Dropped 1 samples	n/a	n/a	n/a	n/a	n/a	n/a	n/a	1	UoHDataOffsetStream
434.576321	0.000000	dropped_samples	3272.283626	Dropped 3 samples	n/a	n/a	n/a	n/a	n/a	n/a	n/a	3	UoHDataOffsetStream
434.921756	1.701006	nback_1	3272.629061	Steps:1 KeyPress:False Matched:False	1	n/a	1	False	False	n/a	n/a	n/a	n-backMarkers
436.060587	0.000000	dropped_samples	3273.767892	Dropped 1 samples	n/a	n/a	n/a	n/a	n/a	n/a	n/a	1	UoHDataOffsetStream
436.622353	1.701006	nback_1	3274.329658	Steps:1 KeyPress:True Matched:False	0	n/a	1	True	False	n/a	n/a	n/a	n-backMarkers
436.666774	0.000000	dropped_samples	3274.374079	Dropped 6 samples	n/a	n/a	n/a	n/a	n/a	n/a	n/a	6	UoHDataOffsetStream
436.709896	0.000000	dropped_samples	3274.417201	Dropped 8 samples	n/a	n/a	n/a	n/a	n/a	n/a	n/a	8	UoHDataOffsetStream
437.501724	0.000000	dropped_samples	3275.209029	Dropped 2 samples	n/a	n/a	n/a	n/a	n/a	n/a	n/a	2	UoHDataOffsetStream
437.664677	0.000000	dropped_samples	3275.371982	Dropped 3 samples	n/a	n/a	n/a	n/a	n/a	n/a	n/a	3	UoHDataOffsetStream
437.665200	0.000000	dropped_samples	3275.372505	Dropped 3 samples	n/a	n/a	n/a	n/a	n/a	n/a	n/a	3	UoHDataOffsetStream
437.696225	0.000000	dropped_samples	3275.403530	Dropped 3 samples	n/a	n/a	n/a	n/a	n/a	n/a	n/a	3	UoHDataOffsetStream
437.862268	0.000000	dropped_samples	3275.569573	Dropped 1 samples	n/a	n/a	n/a	n/a	n/a	n/a	n/a	1	UoHDataOffsetStream
438.323261	1.701006	nback_1	3276.030567	Steps:1 KeyPress:True Matched:True	1	n/a	1	True	True	n/a	n/a	n/a	n-backMarkers
439.145820	0.000000	dropped_samples	3276.853125	Dropped 7 samples	n/a	n/a	n/a	n/a	n/a	n/a	n/a	7	UoHDataOffsetStream
439.180594	0.000000	dropped_samples	3276.887899	Dropped 29 samples	n/a	n/a	n/a	n/a	n/a	n/a	n/a	29	UoHDataOffsetStream
439.302685	0.000000	dropped_samples	3277.009990	Dropped 1 samples	n/a	n/a	n/a	n/a	n/a	n/a	n/a	1	UoHDataOffsetStream
439.903471	0.000000	dropped_samples	3277.610776	Dropped 3 samples	n/a	n/a	n/a	n/a	n/a	n/a	n/a	3	UoHDataOffsetStream
440.024068	1.701006	nback_1	3277.731374	Steps:1 KeyPress:False Matched:True	0	n/a	1	False	True	n/a	n/a	n/a	n-backMarkers
441.534112	0.000000	dropped_samples	3279.241417	Dropped 3 samples	n/a	n/a	n/a	n/a	n/a	n/a	n/a	3	UoHDataOffsetStream
441.724224	1.701006	nback_1	3279.431530	Steps:1 KeyPress:False Matched:True	0	n/a	1	False	True	n/a	n/a	n/a	n-backMarkers
442.607729	0.000000	dropped_samples	3280.315034	Dropped 1 samples	n/a	n/a	n/a	n/a	n/a	n/a	n/a	1	UoHDataOffsetStream
442.666832	0.000000	dropped_samples	3280.374137	Dropped 2 samples	n/a	n/a	n/a	n/a	n/a	n/a	n/a	2	UoHDataOffsetStream
442.710862	0.000000	dropped_samples	3280.418167	Dropped 10 samples	n/a	n/a	n/a	n/a	n/a	n/a	n/a	10	UoHDataOffsetStream
443.425040	1.701006	nback_1	3281.132346	Steps:1 KeyPress:False Matched:False	1	n/a	1	False	False	n/a	n/a	n/a	n-backMarkers
443.629903	0.000000	dropped_samples	3281.337208	Dropped 3 samples	n/a	n/a	n/a	n/a	n/a	n/a	n/a	3	UoHDataOffsetStream
443.698907	0.000000	dropped_samples	3281.406213	Dropped 5 samples	n/a	n/a	n/a	n/a	n/a	n/a	n/a	5	UoHDataOffsetStream
443.741215	0.000000	dropped_samples	3281.448521	Dropped 7 samples	n/a	n/a	n/a	n/a	n/a	n/a	n/a	7	UoHDataOffsetStream
444.751895	0.000000	dropped_samples	3282.459200	Dropped 12 samples	n/a	n/a	n/a	n/a	n/a	n/a	n/a	12	UoHDataOffsetStream
444.991114	0.000000	dropped_samples	3282.698419	Dropped 2 samples	n/a	n/a	n/a	n/a	n/a	n/a	n/a	2	UoHDataOffsetStream
445.126059	1.701006	nback_1	3282.833365	Steps:1 KeyPress:False Matched:False	1	n/a	1	False	False	n/a	n/a	n/a	n-backMarkers
445.303746	0.000000	dropped_samples	3283.011051	Dropped 2 samples	n/a	n/a	n/a	n/a	n/a	n/a	n/a	2	UoHDataOffsetStream
446.826589	1.701006	nback_1	3284.533894	Steps:1 KeyPress:True Matched:False	0	n/a	1	True	False	n/a	n/a	n/a	n-backMarkers
448.005313	0.000000	dropped_samples	3285.712618	Dropped 1 samples	n/a	n/a	n/a	n/a	n/a	n/a	n/a	1	UoHDataOffsetStream
448.527252	1.701006	nback_1	3286.234557	Steps:1 KeyPress:False Matched:True	0	n/a	1	False	True	n/a	n/a	n/a	n-backMarkers
448.901730	0.000000	dropped_samples	3286.609035	Dropped 3 samples	n/a	n/a	n/a	n/a	n/a	n/a	n/a	3	UoHDataOffsetStream
448.968678	0.000000	dropped_samples	3286.675983	Dropped 3 samples	n/a	n/a	n/a	n/a	n/a	n/a	n/a	3	UoHDataOffsetStream
448.975811	0.000000	dropped_samples	3286.683116	Dropped 3 samples	n/a	n/a	n/a	n/a	n/a	n/a	n/a	3	UoHDataOffsetStream
449.024390	0.000000	dropped_samples	3286.731695	Dropped 17 samples	n/a	n/a	n/a	n/a	n/a	n/a	n/a	17	UoHDataOffsetStream
449.654628	0.000000	dropped_samples	3287.361933	Dropped 2 samples	n/a	n/a	n/a	n/a	n/a	n/a	n/a	2	UoHDataOffsetStream
449.721217	0.000000	dropped_samples	3287.428522	Dropped 3 samples	n/a	n/a	n/a	n/a	n/a	n/a	n/a	3	UoHDataOffsetStream
449.766575	0.000000	dropped_samples	3287.473880	Dropped 12 samples	n/a	n/a	n/a	n/a	n/a	n/a	n/a	12	UoHDataOffsetStream
449.913183	0.000000	dropped_samples	3287.620488	Dropped 2 samples	n/a	n/a	n/a	n/a	n/a	n/a	n/a	2	UoHDataOffsetStream
450.228896	1.701006	nback_1	3287.936202	Steps:1 KeyPress:False Matched:True	0	n/a	1	False	True	n/a	n/a	n/a	n-backMarkers
450.389872	0.000000	dropped_samples	3288.097177	Dropped 2 samples	n/a	n/a	n/a	n/a	n/a	n/a	n/a	2	UoHDataOffsetStream
450.680868	0.000000	dropped_samples	3288.388173	Dropped 3 samples	n/a	n/a	n/a	n/a	n/a	n/a	n/a	3	UoHDataOffsetStream
450.682954	0.000000	dropped_samples	3288.390259	Dropped 7 samples	n/a	n/a	n/a	n/a	n/a	n/a	n/a	7	UoHDataOffsetStream
450.728515	0.000000	dropped_samples	3288.435820	Dropped 3 samples	n/a	n/a	n/a	n/a	n/a	n/a	n/a	3	UoHDataOffsetStream
451.856404	0.000000	dropped_samples	3289.563709	Dropped 2 samples	n/a	n/a	n/a	n/a	n/a	n/a	n/a	2	UoHDataOffsetStream
451.931035	1.701006	nback_1	3289.638341	Steps:1 KeyPress:False Matched:False	1	n/a	1	False	False	n/a	n/a	n/a	n-backMarkers
452.237269	0.000000	dropped_samples	3289.944574	Dropped 1 samples	n/a	n/a	n/a	n/a	n/a	n/a	n/a	1	UoHDataOffsetStream
453.632710	1.701006	nback_1	3291.340015	Steps:1 KeyPress:False Matched:False	1	n/a	1	False	False	n/a	n/a	n/a	n-backMarkers
454.253882	0.000000	dropped_samples	3291.961187	Dropped 1 samples	n/a	n/a	n/a	n/a	n/a	n/a	n/a	1	UoHDataOffsetStream
454.499229	0.000000	dropped_samples	3292.206534	Dropped 3 samples	n/a	n/a	n/a	n/a	n/a	n/a	n/a	3	UoHDataOffsetStream
454.756790	0.000000	dropped_samples	3292.464095	Dropped 5 samples	n/a	n/a	n/a	n/a	n/a	n/a	n/a	5	UoHDataOffsetStream
455.334021	1.701006	nback_1	3293.041327	Steps:1 KeyPress:True Matched:False	0	n/a	1	True	False	n/a	n/a	n/a	n-backMarkers
455.858907	0.000000	dropped_samples	3293.566212	Dropped 2 samples	n/a	n/a	n/a	n/a	n/a	n/a	n/a	2	UoHDataOffsetStream
455.875136	0.000000	dropped_samples	3293.582441	Dropped 3 samples	n/a	n/a	n/a	n/a	n/a	n/a	n/a	3	UoHDataOffsetStream
455.896606	0.000000	dropped_samples	3293.603911	Dropped 3 samples	n/a	n/a	n/a	n/a	n/a	n/a	n/a	3	UoHDataOffsetStream
455.984331	0.000000	dropped_samples	3293.691636	Dropped 16 samples	n/a	n/a	n/a	n/a	n/a	n/a	n/a	16	UoHDataOffsetStream
457.034207	1.701006	nback_1	3294.741513	Steps:1 KeyPress:False Matched:True	0	n/a	1	False	True	n/a	n/a	n/a	n-backMarkers
457.381438	0.000000	dropped_samples	3295.088743	Dropped 6 samples	n/a	n/a	n/a	n/a	n/a	n/a	n/a	6	UoHDataOffsetStream
457.422834	0.000000	dropped_samples	3295.130139	Dropped 38 samples	n/a	n/a	n/a	n/a	n/a	n/a	n/a	38	UoHDataOffsetStream
457.710895	0.000000	dropped_samples	3295.418200	Dropped 1 samples	n/a	n/a	n/a	n/a	n/a	n/a	n/a	1	UoHDataOffsetStream
458.735454	1.701006	nback_1	3296.442760	Steps:1 KeyPress:False Matched:False	1	n/a	1	False	False	n/a	n/a	n/a	n-backMarkers
459.851075	0.000000	dropped_samples	3297.558380	Dropped 1 samples	n/a	n/a	n/a	n/a	n/a	n/a	n/a	1	UoHDataOffsetStream
460.435526	1.701006	nback_1	3298.142832	Steps:1 KeyPress:True Matched:False	0	n/a	1	True	False	n/a	n/a	n/a	n-backMarkers
460.705544	0.000000	dropped_samples	3298.412849	Dropped 3 samples	n/a	n/a	n/a	n/a	n/a	n/a	n/a	3	UoHDataOffsetStream
460.772849	0.000000	dropped_samples	3298.480154	Dropped 7 samples	n/a	n/a	n/a	n/a	n/a	n/a	n/a	7	UoHDataOffsetStream
460.774159	0.000000	dropped_samples	3298.481464	Dropped 3 samples	n/a	n/a	n/a	n/a	n/a	n/a	n/a	3	UoHDataOffsetStream
460.806648	0.000000	dropped_samples	3298.513953	Dropped 4 samples	n/a	n/a	n/a	n/a	n/a	n/a	n/a	4	UoHDataOffsetStream
461.479419	0.000000	dropped_samples	3299.186724	Dropped 3 samples	n/a	n/a	n/a	n/a	n/a	n/a	n/a	3	UoHDataOffsetStream
461.685004	0.000000	dropped_samples	3299.392309	Dropped 2 samples	n/a	n/a	n/a	n/a	n/a	n/a	n/a	2	UoHDataOffsetStream
461.686122	0.000000	dropped_samples	3299.393427	Dropped 2 samples	n/a	n/a	n/a	n/a	n/a	n/a	n/a	2	UoHDataOffsetStream
461.719745	0.000000	dropped_samples	3299.427050	Dropped 3 samples	n/a	n/a	n/a	n/a	n/a	n/a	n/a	3	UoHDataOffsetStream
462.136367	1.701006	nback_1	3299.843673	Steps:1 KeyPress:False Matched:True	0	n/a	1	False	True	n/a	n/a	n/a	n-backMarkers
462.508826	0.000000	dropped_samples	3300.216131	Dropped 2 samples	n/a	n/a	n/a	n/a	n/a	n/a	n/a	2	UoHDataOffsetStream
462.536131	0.000000	dropped_samples	3300.243436	Dropped 3 samples	n/a	n/a	n/a	n/a	n/a	n/a	n/a	3	UoHDataOffsetStream
462.587584	0.000000	dropped_samples	3300.294889	Dropped 3 samples	n/a	n/a	n/a	n/a	n/a	n/a	n/a	3	UoHDataOffsetStream
463.837356	1.701006	nback_1	3301.544662	Steps:1 KeyPress:False Matched:True	0	n/a	1	False	True	n/a	n/a	n/a	n-backMarkers
465.127911	0.000000	dropped_samples	3302.835216	Dropped 1 samples	n/a	n/a	n/a	n/a	n/a	n/a	n/a	1	UoHDataOffsetStream
465.538925	1.701006	nback_1	3303.246230	Steps:1 KeyPress:False Matched:False	1	n/a	1	False	False	n/a	n/a	n/a	n-backMarkers
467.085467	0.000000	dropped_samples	3304.792772	Dropped 3 samples	n/a	n/a	n/a	n/a	n/a	n/a	n/a	3	UoHDataOffsetStream
467.181550	0.000000	dropped_samples	3304.888855	Dropped 3 samples	n/a	n/a	n/a	n/a	n/a	n/a	n/a	3	UoHDataOffsetStream
467.182880	0.000000	dropped_samples	3304.890185	Dropped 3 samples	n/a	n/a	n/a	n/a	n/a	n/a	n/a	3	UoHDataOffsetStream
467.239344	1.701006	nback_1	3304.946650	Steps:1 KeyPress:True Matched:False	0	n/a	1	True	False	n/a	n/a	n/a	n-backMarkers
467.254312	0.000000	dropped_samples	3304.961617	Dropped 17 samples	n/a	n/a	n/a	n/a	n/a	n/a	n/a	17	UoHDataOffsetStream
467.299198	0.000000	dropped_samples	3305.006503	Dropped 1 samples	n/a	n/a	n/a	n/a	n/a	n/a	n/a	1	UoHDataOffsetStream
467.667273	0.000000	dropped_samples	3305.374578	Dropped 5 samples	n/a	n/a	n/a	n/a	n/a	n/a	n/a	5	UoHDataOffsetStream
467.696278	0.000000	dropped_samples	3305.403583	Dropped 3 samples	n/a	n/a	n/a	n/a	n/a	n/a	n/a	3	UoHDataOffsetStream
468.770552	0.000000	dropped_samples	3306.477857	Dropped 6 samples	n/a	n/a	n/a	n/a	n/a	n/a	n/a	6	UoHDataOffsetStream
468.935791	0.000000	dropped_samples	3306.643096	Dropped 6 samples	n/a	n/a	n/a	n/a	n/a	n/a	n/a	6	UoHDataOffsetStream
468.941608	1.701006	nback_1	3306.648914	Steps:1 KeyPress:False Matched:True	0	n/a	1	False	True	n/a	n/a	n/a	n-backMarkers
468.941717	0.000000	dropped_samples	3306.649022	Dropped 3 samples	n/a	n/a	n/a	n/a	n/a	n/a	n/a	3	UoHDataOffsetStream
468.990248	0.000000	dropped_samples	3306.697553	Dropped 10 samples	n/a	n/a	n/a	n/a	n/a	n/a	n/a	10	UoHDataOffsetStream
470.642100	1.701006	nback_1	3308.349406	Steps:1 KeyPress:False Matched:True	0	n/a	1	False	True	n/a	n/a	n/a	n-backMarkers
470.718757	0.000000	dropped_samples	3308.426062	Dropped 3 samples	n/a	n/a	n/a	n/a	n/a	n/a	n/a	3	UoHDataOffsetStream
470.840880	0.000000	dropped_samples	3308.548185	Dropped 1 samples	n/a	n/a	n/a	n/a	n/a	n/a	n/a	1	UoHDataOffsetStream
472.344006	1.701006	nback_1	3310.051311	Steps:1 KeyPress:False Matched:False	1	n/a	1	False	False	n/a	n/a	n/a	n-backMarkers
472.560787	0.000000	dropped_samples	3310.268092	Dropped 7 samples	n/a	n/a	n/a	n/a	n/a	n/a	n/a	7	UoHDataOffsetStream
472.710910	0.000000	dropped_samples	3310.418215	Dropped 2 samples	n/a	n/a	n/a	n/a	n/a	n/a	n/a	2	UoHDataOffsetStream
472.852529	0.000000	dropped_samples	3310.559834	Dropped 3 samples	n/a	n/a	n/a	n/a	n/a	n/a	n/a	3	UoHDataOffsetStream
473.638129	0.000000	dropped_samples	3311.345434	Dropped 7 samples	n/a	n/a	n/a	n/a	n/a	n/a	n/a	7	UoHDataOffsetStream
473.756088	0.000000	dropped_samples	3311.463393	Dropped 5 samples	n/a	n/a	n/a	n/a	n/a	n/a	n/a	5	UoHDataOffsetStream
473.790107	0.000000	dropped_samples	3311.497412	Dropped 3 samples	n/a	n/a	n/a	n/a	n/a	n/a	n/a	3	UoHDataOffsetStream
474.044267	1.701006	nback_1	3311.751572	Steps:1 KeyPress:False Matched:False	1	n/a	1	False	False	n/a	n/a	n/a	n-backMarkers
474.102608	0.000000	dropped_samples	3311.809913	Dropped 1 samples	n/a	n/a	n/a	n/a	n/a	n/a	n/a	1	UoHDataOffsetStream
474.771090	0.000000	dropped_samples	3312.478395	Dropped 1 samples	n/a	n/a	n/a	n/a	n/a	n/a	n/a	1	UoHDataOffsetStream
474.771857	0.000000	dropped_samples	3312.479162	Dropped 3 samples	n/a	n/a	n/a	n/a	n/a	n/a	n/a	3	UoHDataOffsetStream
474.836957	0.000000	dropped_samples	3312.544262	Dropped 3 samples	n/a	n/a	n/a	n/a	n/a	n/a	n/a	3	UoHDataOffsetStream
474.869251	0.000000	dropped_samples	3312.576556	Dropped 7 samples	n/a	n/a	n/a	n/a	n/a	n/a	n/a	7	UoHDataOffsetStream
475.328176	0.000000	dropped_samples	3313.035481	Dropped 3 samples	n/a	n/a	n/a	n/a	n/a	n/a	n/a	3	UoHDataOffsetStream
475.744308	1.701006	nback_1	3313.451613	Steps:1 KeyPress:False Matched:False	1	n/a	1	False	False	n/a	n/a	n/a	n-backMarkers
476.611174	0.000000	dropped_samples	3314.318479	Dropped 1 samples	n/a	n/a	n/a	n/a	n/a	n/a	n/a	1	UoHDataOffsetStream
476.612041	0.000000	dropped_samples	3314.319346	Dropped 11 samples	n/a	n/a	n/a	n/a	n/a	n/a	n/a	11	UoHDataOffsetStream
476.646446	0.000000	dropped_samples	3314.353751	Dropped 3 samples	n/a	n/a	n/a	n/a	n/a	n/a	n/a	3	UoHDataOffsetStream
477.232440	0.000000	dropped_samples	3314.939745	Dropped 2 samples	n/a	n/a	n/a	n/a	n/a	n/a	n/a	2	UoHDataOffsetStream
477.271492	0.000000	dropped_samples	3314.978797	Dropped 3 samples	n/a	n/a	n/a	n/a	n/a	n/a	n/a	3	UoHDataOffsetStream
477.446101	1.701006	nback_1	3315.153407	Steps:1 KeyPress:True Matched:False	0	n/a	1	True	False	n/a	n/a	n/a	n-backMarkers
477.583939	0.000000	dropped_samples	3315.291244	Dropped 3 samples	n/a	n/a	n/a	n/a	n/a	n/a	n/a	3	UoHDataOffsetStream
478.657485	0.000000	dropped_samples	3316.364790	Dropped 3 samples	n/a	n/a	n/a	n/a	n/a	n/a	n/a	3	UoHDataOffsetStream
478.765128	0.000000	dropped_samples	3316.472433	Dropped 7 samples	n/a	n/a	n/a	n/a	n/a	n/a	n/a	7	UoHDataOffsetStream
478.765950	0.000000	dropped_samples	3316.473256	Dropped 4 samples	n/a	n/a	n/a	n/a	n/a	n/a	n/a	4	UoHDataOffsetStream
478.804738	0.000000	dropped_samples	3316.512043	Dropped 3 samples	n/a	n/a	n/a	n/a	n/a	n/a	n/a	3	UoHDataOffsetStream
479.117271	0.000000	dropped_samples	3316.824576	Dropped 3 samples	n/a	n/a	n/a	n/a	n/a	n/a	n/a	3	UoHDataOffsetStream
479.147244	1.701006	nback_1	3316.854549	Steps:1 KeyPress:False Matched:True	0	n/a	1	False	True	n/a	n/a	n/a	n-backMarkers
479.611681	0.000000	dropped_samples	3317.318986	Dropped 3 samples	n/a	n/a	n/a	n/a	n/a	n/a	n/a	3	UoHDataOffsetStream
479.625246	0.000000	dropped_samples	3317.332551	Dropped 8 samples	n/a	n/a	n/a	n/a	n/a	n/a	n/a	8	UoHDataOffsetStream
480.491664	0.000000	dropped_samples	3318.198970	Dropped 6 samples	n/a	n/a	n/a	n/a	n/a	n/a	n/a	6	UoHDataOffsetStream
480.508888	0.000000	dropped_samples	3318.216193	Dropped 2 samples	n/a	n/a	n/a	n/a	n/a	n/a	n/a	2	UoHDataOffsetStream
480.847943	1.701006	nback_1	3318.555249	Steps:1 KeyPress:False Matched:True	0	n/a	1	False	True	n/a	n/a	n/a	n-backMarkers
481.041053	0.000000	dropped_samples	3318.748358	Dropped 2 samples	n/a	n/a	n/a	n/a	n/a	n/a	n/a	2	UoHDataOffsetStream
481.758816	0.000000	dropped_samples	3319.466121	Dropped 2 samples	n/a	n/a	n/a	n/a	n/a	n/a	n/a	2	UoHDataOffsetStream
482.548580	1.701006	nback_1	3320.255886	Steps:1 KeyPress:False Matched:False	1	n/a	1	False	False	n/a	n/a	n/a	n-backMarkers
483.077319	0.000000	dropped_samples	3320.784624	Dropped 1 samples	n/a	n/a	n/a	n/a	n/a	n/a	n/a	1	UoHDataOffsetStream
484.250089	1.701006	nback_1	3321.957395	Steps:1 KeyPress:False Matched:False	1	n/a	1	False	False	n/a	n/a	n/a	n-backMarkers
484.749043	0.000000	dropped_samples	3322.456348	Dropped 3 samples	n/a	n/a	n/a	n/a	n/a	n/a	n/a	3	UoHDataOffsetStream
484.752156	0.000000	dropped_samples	3322.459461	Dropped 7 samples	n/a	n/a	n/a	n/a	n/a	n/a	n/a	7	UoHDataOffsetStream
484.781336	0.000000	dropped_samples	3322.488641	Dropped 2 samples	n/a	n/a	n/a	n/a	n/a	n/a	n/a	2	UoHDataOffsetStream
485.951156	1.701006	nback_1	3323.658462	Steps:1 KeyPress:False Matched:False	1	n/a	1	False	False	n/a	n/a	n/a	n-backMarkers
486.137854	0.000000	dropped_samples	3323.845159	Dropped 6 samples	n/a	n/a	n/a	n/a	n/a	n/a	n/a	6	UoHDataOffsetStream
486.139217	0.000000	dropped_samples	3323.846522	Dropped 3 samples	n/a	n/a	n/a	n/a	n/a	n/a	n/a	3	UoHDataOffsetStream
486.172856	0.000000	dropped_samples	3323.880161	Dropped 27 samples	n/a	n/a	n/a	n/a	n/a	n/a	n/a	27	UoHDataOffsetStream
487.014779	0.000000	dropped_samples	3324.722084	Dropped 2 samples	n/a	n/a	n/a	n/a	n/a	n/a	n/a	2	UoHDataOffsetStream
487.019384	0.000000	dropped_samples	3324.726689	Dropped 4 samples	n/a	n/a	n/a	n/a	n/a	n/a	n/a	4	UoHDataOffsetStream
487.061551	0.000000	dropped_samples	3324.768856	Dropped 21 samples	n/a	n/a	n/a	n/a	n/a	n/a	n/a	21	UoHDataOffsetStream
487.653005	1.701006	nback_1	3325.360311	Steps:1 KeyPress:False Matched:False	1	n/a	1	False	False	n/a	n/a	n/a	n-backMarkers
488.335975	0.000000	dropped_samples	3326.043280	Dropped 1 samples	n/a	n/a	n/a	n/a	n/a	n/a	n/a	1	UoHDataOffsetStream
488.477601	0.000000	dropped_samples	3326.184906	Dropped 1 samples	n/a	n/a	n/a	n/a	n/a	n/a	n/a	1	UoHDataOffsetStream
489.004892	0.000000	dropped_samples	3326.712197	Dropped 1 samples	n/a	n/a	n/a	n/a	n/a	n/a	n/a	1	UoHDataOffsetStream
489.353434	1.701006	nback_1	3327.060740	Steps:1 KeyPress:True Matched:False	0	n/a	1	True	False	n/a	n/a	n/a	n-backMarkers
490.572371	0.000000	dropped_samples	3328.279676	Dropped 3 samples	n/a	n/a	n/a	n/a	n/a	n/a	n/a	3	UoHDataOffsetStream
490.709217	0.000000	dropped_samples	3328.416522	Dropped 2 samples	n/a	n/a	n/a	n/a	n/a	n/a	n/a	2	UoHDataOffsetStream
491.054038	1.701006	nback_1	3328.761344	Steps:1 KeyPress:False Matched:True	0	n/a	1	False	True	n/a	n/a	n/a	n-backMarkers
491.690797	0.000000	dropped_samples	3329.398102	Dropped 3 samples	n/a	n/a	n/a	n/a	n/a	n/a	n/a	3	UoHDataOffsetStream
491.796333	0.000000	dropped_samples	3329.503638	Dropped 2 samples	n/a	n/a	n/a	n/a	n/a	n/a	n/a	2	UoHDataOffsetStream
491.797923	0.000000	dropped_samples	3329.505228	Dropped 8 samples	n/a	n/a	n/a	n/a	n/a	n/a	n/a	8	UoHDataOffsetStream
491.837028	0.000000	dropped_samples	3329.544333	Dropped 3 samples	n/a	n/a	n/a	n/a	n/a	n/a	n/a	3	UoHDataOffsetStream
492.056751	0.000000	dropped_samples	3329.764057	Dropped 3 samples	n/a	n/a	n/a	n/a	n/a	n/a	n/a	3	UoHDataOffsetStream
492.718843	0.000000	dropped_samples	3330.426148	Dropped 7 samples	n/a	n/a	n/a	n/a	n/a	n/a	n/a	7	UoHDataOffsetStream
492.750027	0.000000	dropped_samples	3330.457332	Dropped 10 samples	n/a	n/a	n/a	n/a	n/a	n/a	n/a	10	UoHDataOffsetStream
492.754162	1.701006	nback_1	3330.461468	Steps:1 KeyPress:False Matched:False	1	n/a	1	False	False	n/a	n/a	n/a	n-backMarkers
492.964943	0.000000	dropped_samples	3330.672248	Dropped 3 samples	n/a	n/a	n/a	n/a	n/a	n/a	n/a	3	UoHDataOffsetStream
493.127938	0.000000	dropped_samples	3330.835243	Dropped 1 samples	n/a	n/a	n/a	n/a	n/a	n/a	n/a	1	UoHDataOffsetStream
493.160203	0.000000	dropped_samples	3330.867508	Dropped 1 samples	n/a	n/a	n/a	n/a	n/a	n/a	n/a	1	UoHDataOffsetStream
494.455322	1.701006	nback_1	3332.162628	Steps:1 KeyPress:True Matched:False	0	n/a	1	True	False	n/a	n/a	n/a	n-backMarkers
496.133813	0.000000	dropped_samples	3333.841118	Dropped 1 samples	n/a	n/a	n/a	n/a	n/a	n/a	n/a	1	UoHDataOffsetStream
496.156643	1.701006	nback_1	3333.863948	Steps:1 KeyPress:False Matched:True	0	n/a	1	False	True	n/a	n/a	n/a	n-backMarkers
496.471474	0.000000	dropped_samples	3334.178779	Dropped 3 samples	n/a	n/a	n/a	n/a	n/a	n/a	n/a	3	UoHDataOffsetStream
496.886710	0.000000	dropped_samples	3334.594015	Dropped 2 samples	n/a	n/a	n/a	n/a	n/a	n/a	n/a	2	UoHDataOffsetStream
497.064641	0.000000	dropped_samples	3334.771946	Dropped 5 samples	n/a	n/a	n/a	n/a	n/a	n/a	n/a	5	UoHDataOffsetStream
497.071616	0.000000	dropped_samples	3334.778921	Dropped 3 samples	n/a	n/a	n/a	n/a	n/a	n/a	n/a	3	UoHDataOffsetStream
497.120242	0.000000	dropped_samples	3334.827547	Dropped 11 samples	n/a	n/a	n/a	n/a	n/a	n/a	n/a	11	UoHDataOffsetStream
497.858316	1.701006	nback_1	3335.565621	Steps:1 KeyPress:False Matched:False	1	n/a	1	False	False	n/a	n/a	n/a	n-backMarkers
498.002377	0.000000	dropped_samples	3335.709682	Dropped 3 samples	n/a	n/a	n/a	n/a	n/a	n/a	n/a	3	UoHDataOffsetStream
498.068315	0.000000	dropped_samples	3335.775620	Dropped 4 samples	n/a	n/a	n/a	n/a	n/a	n/a	n/a	4	UoHDataOffsetStream
498.111802	0.000000	dropped_samples	3335.819107	Dropped 3 samples	n/a	n/a	n/a	n/a	n/a	n/a	n/a	3	UoHDataOffsetStream
498.137563	0.000000	dropped_samples	3335.844868	Dropped 17 samples	n/a	n/a	n/a	n/a	n/a	n/a	n/a	17	UoHDataOffsetStream
498.686608	0.000000	dropped_samples	3336.393913	Dropped 2 samples	n/a	n/a	n/a	n/a	n/a	n/a	n/a	2	UoHDataOffsetStream
498.688940	0.000000	dropped_samples	3336.396245	Dropped 2 samples	n/a	n/a	n/a	n/a	n/a	n/a	n/a	2	UoHDataOffsetStream
498.726590	0.000000	dropped_samples	3336.433895	Dropped 9 samples	n/a	n/a	n/a	n/a	n/a	n/a	n/a	9	UoHDataOffsetStream
498.990292	0.000000	dropped_samples	3336.697597	Dropped 2 samples	n/a	n/a	n/a	n/a	n/a	n/a	n/a	2	UoHDataOffsetStream
499.161263	0.000000	dropped_samples	3336.868568	Dropped 3 samples	n/a	n/a	n/a	n/a	n/a	n/a	n/a	3	UoHDataOffsetStream
499.558974	1.701006	nback_1	3337.266280	Steps:1 KeyPress:True Matched:False	0	n/a	1	True	False	n/a	n/a	n/a	n-backMarkers
499.590870	0.000000	dropped_samples	3337.298175	Dropped 7 samples	n/a	n/a	n/a	n/a	n/a	n/a	n/a	7	UoHDataOffsetStream
500.001091	0.000000	dropped_samples	3337.708396	Dropped 1 samples	n/a	n/a	n/a	n/a	n/a	n/a	n/a	1	UoHDataOffsetStream
501.080390	0.000000	dropped_samples	3338.787695	Dropped 1 samples	n/a	n/a	n/a	n/a	n/a	n/a	n/a	1	UoHDataOffsetStream
501.128971	0.000000	dropped_samples	3338.836276	Dropped 3 samples	n/a	n/a	n/a	n/a	n/a	n/a	n/a	3	UoHDataOffsetStream
501.260853	1.701006	nback_1	3338.968158	Steps:1 KeyPress:False Matched:True	0	n/a	1	False	True	n/a	n/a	n/a	n-backMarkers
501.319373	0.000000	dropped_samples	3339.026678	Dropped 2 samples	n/a	n/a	n/a	n/a	n/a	n/a	n/a	2	UoHDataOffsetStream
502.085980	0.000000	dropped_samples	3339.793285	Dropped 1 samples	n/a	n/a	n/a	n/a	n/a	n/a	n/a	1	UoHDataOffsetStream
502.798690	0.000000	dropped_samples	3340.505995	Dropped 2 samples	n/a	n/a	n/a	n/a	n/a	n/a	n/a	2	UoHDataOffsetStream
502.961894	1.701006	nback_1	3340.669200	Steps:1 KeyPress:False Matched:False	1	n/a	1	False	False	n/a	n/a	n/a	n-backMarkers
502.965180	0.000000	dropped_samples	3340.672485	Dropped 4 samples	n/a	n/a	n/a	n/a	n/a	n/a	n/a	4	UoHDataOffsetStream
502.966566	0.000000	dropped_samples	3340.673871	Dropped 3 samples	n/a	n/a	n/a	n/a	n/a	n/a	n/a	3	UoHDataOffsetStream
503.030548	0.000000	dropped_samples	3340.737853	Dropped 11 samples	n/a	n/a	n/a	n/a	n/a	n/a	n/a	11	UoHDataOffsetStream
503.969013	0.000000	dropped_samples	3341.676318	Dropped 2 samples	n/a	n/a	n/a	n/a	n/a	n/a	n/a	2	UoHDataOffsetStream
503.970256	0.000000	dropped_samples	3341.677561	Dropped 3 samples	n/a	n/a	n/a	n/a	n/a	n/a	n/a	3	UoHDataOffsetStream
504.004992	0.000000	dropped_samples	3341.712297	Dropped 22 samples	n/a	n/a	n/a	n/a	n/a	n/a	n/a	22	UoHDataOffsetStream
504.663069	1.701006	nback_1	3342.370374	Steps:1 KeyPress:True Matched:False	0	n/a	1	True	False	n/a	n/a	n/a	n-backMarkers
505.098453	0.000000	dropped_samples	3342.805758	Dropped 7 samples	n/a	n/a	n/a	n/a	n/a	n/a	n/a	7	UoHDataOffsetStream
505.099807	0.000000	dropped_samples	3342.807112	Dropped 3 samples	n/a	n/a	n/a	n/a	n/a	n/a	n/a	3	UoHDataOffsetStream
505.137803	0.000000	dropped_samples	3342.845108	Dropped 23 samples	n/a	n/a	n/a	n/a	n/a	n/a	n/a	23	UoHDataOffsetStream
506.364221	1.701006	nback_1	3344.071526	Steps:1 KeyPress:False Matched:True	0	n/a	1	False	True	n/a	n/a	n/a	n-backMarkers
508.065903	1.701006	nback_1	3345.773209	Steps:1 KeyPress:False Matched:False	1	n/a	1	False	False	n/a	n/a	n/a	n-backMarkers
508.541222	0.000000	dropped_samples	3346.248527	Dropped 2 samples	n/a	n/a	n/a	n/a	n/a	n/a	n/a	2	UoHDataOffsetStream
509.239632	0.000000	dropped_samples	3346.946937	Dropped 1 samples	n/a	n/a	n/a	n/a	n/a	n/a	n/a	1	UoHDataOffsetStream
509.300224	0.000000	dropped_samples	3347.007530	Dropped 2 samples	n/a	n/a	n/a	n/a	n/a	n/a	n/a	2	UoHDataOffsetStream
509.336953	0.000000	dropped_samples	3347.044258	Dropped 1 samples	n/a	n/a	n/a	n/a	n/a	n/a	n/a	1	UoHDataOffsetStream
509.669068	0.000000	dropped_samples	3347.376373	Dropped 3 samples	n/a	n/a	n/a	n/a	n/a	n/a	n/a	3	UoHDataOffsetStream
509.766705	1.701006	nback_1	3347.474011	Steps:1 KeyPress:True Matched:False	0	n/a	1	True	False	n/a	n/a	n/a	n-backMarkers
510.533458	0.000000	dropped_samples	3348.240763	Dropped 1 samples	n/a	n/a	n/a	n/a	n/a	n/a	n/a	1	UoHDataOffsetStream
511.451694	0.000000	dropped_samples	3349.158999	Dropped 2 samples	n/a	n/a	n/a	n/a	n/a	n/a	n/a	2	UoHDataOffsetStream
511.467026	1.701006	nback_1	3349.174331	Steps:1 KeyPress:False Matched:False	1	n/a	1	False	False	n/a	n/a	n/a	n-backMarkers
511.495172	0.000000	dropped_samples	3349.202477	Dropped 2 samples	n/a	n/a	n/a	n/a	n/a	n/a	n/a	2	UoHDataOffsetStream
511.758998	0.000000	dropped_samples	3349.466303	Dropped 3 samples	n/a	n/a	n/a	n/a	n/a	n/a	n/a	3	UoHDataOffsetStream
511.929740	0.000000	dropped_samples	3349.637045	Dropped 1 samples	n/a	n/a	n/a	n/a	n/a	n/a	n/a	1	UoHDataOffsetStream
513.168172	1.701006	nback_1	3350.875478	Steps:1 KeyPress:True Matched:False	0	n/a	1	True	False	n/a	n/a	n/a	n-backMarkers
513.724537	0.000000	dropped_samples	3351.431842	Dropped 3 samples	n/a	n/a	n/a	n/a	n/a	n/a	n/a	3	UoHDataOffsetStream
514.114840	0.000000	dropped_samples	3351.822145	Dropped 1 samples	n/a	n/a	n/a	n/a	n/a	n/a	n/a	1	UoHDataOffsetStream
514.161252	0.000000	dropped_samples	3351.868557	Dropped 3 samples	n/a	n/a	n/a	n/a	n/a	n/a	n/a	3	UoHDataOffsetStream
514.327211	0.000000	dropped_samples	3352.034516	Dropped 1 samples	n/a	n/a	n/a	n/a	n/a	n/a	n/a	1	UoHDataOffsetStream
514.376076	0.000000	dropped_samples	3352.083381	Dropped 1 samples	n/a	n/a	n/a	n/a	n/a	n/a	n/a	1	UoHDataOffsetStream
514.869578	1.701006	nback_1	3352.576883	Steps:1 KeyPress:False Matched:True	0	n/a	1	False	True	n/a	n/a	n/a	n-backMarkers
516.570089	1.701006	nback_1	3354.277394	Steps:1 KeyPress:False Matched:False	1	n/a	1	False	False	n/a	n/a	n/a	n-backMarkers
518.270487	1.701006	nback_1	3355.977793	Steps:1 KeyPress:True Matched:False	0	n/a	1	True	False	n/a	n/a	n/a	n-backMarkers
519.971160	1.701006	nback_1	3357.678466	Steps:1 KeyPress:False Matched:True	0	n/a	1	False	True	n/a	n/a	n/a	n-backMarkers
520.230638	0.000000	dropped_samples	3357.937943	Dropped 1 samples	n/a	n/a	n/a	n/a	n/a	n/a	n/a	1	UoHDataOffsetStream
520.352620	0.000000	dropped_samples	3358.059925	Dropped 2 samples	n/a	n/a	n/a	n/a	n/a	n/a	n/a	2	UoHDataOffsetStream
521.673721	1.701006	nback_1	3359.381027	Steps:1 KeyPress:False Matched:False	1	n/a	1	False	False	n/a	n/a	n/a	n-backMarkers
523.374960	1.701006	nback_1	3361.082266	Steps:1 KeyPress:True Matched:False	0	n/a	1	True	False	n/a	n/a	n/a	n-backMarkers
