onset	duration	trial_type	timestamp_lsl	marker	response_accuracy	nback_level	key_press	matched	outcome	istutorial	dropped_samples	marker_stream
0.747990	0.012000	dropped_samples	4284.197587	Dropped 3 samples	n/a	n/a	n/a	n/a	n/a	n/a	3	UoHDataOffsetStream
0.774583	0.012000	dropped_samples	4284.224179	Dropped 3 samples	n/a	n/a	n/a	n/a	n/a	n/a	3	UoHDataOffsetStream
0.775950	0.012000	dropped_samples	4284.225546	Dropped 3 samples	n/a	n/a	n/a	n/a	n/a	n/a	3	UoHDataOffsetStream
0.816009	0.020000	dropped_samples	4284.265605	Dropped 5 samples	n/a	n/a	n/a	n/a	n/a	n/a	5	UoHDataOffsetStream
1.511446	0.012000	dropped_samples	4284.961042	Dropped 3 samples	n/a	n/a	n/a	n/a	n/a	n/a	3	UoHDataOffsetStream
2.171058	0.008000	dropped_samples	4285.620655	Dropped 2 samples	n/a	n/a	n/a	n/a	n/a	n/a	2	UoHDataOffsetStream
2.280108	0.012000	dropped_samples	4285.729704	Dropped 3 samples	n/a	n/a	n/a	n/a	n/a	n/a	3	UoHDataOffsetStream
2.334674	0.012000	dropped_samples	4285.784271	Dropped 3 samples	n/a	n/a	n/a	n/a	n/a	n/a	3	UoHDataOffsetStream
2.378453	0.096000	dropped_samples	4285.828049	Dropped 24 samples	n/a	n/a	n/a	n/a	n/a	n/a	24	UoHDataOffsetStream
2.885388	0.012000	dropped_samples	4286.334984	Dropped 3 samples	n/a	n/a	n/a	n/a	n/a	n/a	3	UoHDataOffsetStream
2.944658	0.012000	dropped_samples	4286.394254	Dropped 3 samples	n/a	n/a	n/a	n/a	n/a	n/a	3	UoHDataOffsetStream
3.006721	0.028000	dropped_samples	4286.456317	Dropped 7 samples	n/a	n/a	n/a	n/a	n/a	n/a	7	UoHDataOffsetStream
3.052255	0.028000	dropped_samples	4286.501852	Dropped 7 samples	n/a	n/a	n/a	n/a	n/a	n/a	7	UoHDataOffsetStream
3.561397	0.012000	dropped_samples	4287.010994	Dropped 3 samples	n/a	n/a	n/a	n/a	n/a	n/a	3	UoHDataOffsetStream
3.658854	0.012000	dropped_samples	4287.108450	Dropped 3 samples	n/a	n/a	n/a	n/a	n/a	n/a	3	UoHDataOffsetStream
3.660271	0.012000	dropped_samples	4287.109868	Dropped 3 samples	n/a	n/a	n/a	n/a	n/a	n/a	3	UoHDataOffsetStream
3.696790	0.028000	dropped_samples	4287.146386	Dropped 7 samples	n/a	n/a	n/a	n/a	n/a	n/a	7	UoHDataOffsetStream
4.827243	0.012000	dropped_samples	4288.276839	Dropped 3 samples	n/a	n/a	n/a	n/a	n/a	n/a	3	UoHDataOffsetStream
4.916561	0.024000	dropped_samples	4288.366157	Dropped 6 samples	n/a	n/a	n/a	n/a	n/a	n/a	6	UoHDataOffsetStream
5.388486	0.108000	dropped_samples	4288.838082	Dropped 27 samples	n/a	n/a	n/a	n/a	n/a	n/a	27	UoHDataOffsetStream
5.390529	0.012000	dropped_samples	4288.840125	Dropped 3 samples	n/a	n/a	n/a	n/a	n/a	n/a	3	UoHDataOffsetStream
5.415989	0.012000	dropped_samples	4288.865585	Dropped 3 samples	n/a	n/a	n/a	n/a	n/a	n/a	3	UoHDataOffsetStream
5.416723	0.028000	dropped_samples	4288.866319	Dropped 7 samples	n/a	n/a	n/a	n/a	n/a	n/a	7	UoHDataOffsetStream
5.450962	0.012000	dropped_samples	4288.900559	Dropped 3 samples	n/a	n/a	n/a	n/a	n/a	n/a	3	UoHDataOffsetStream
5.835477	0.004000	dropped_samples	4289.285073	Dropped 1 samples	n/a	n/a	n/a	n/a	n/a	n/a	1	UoHDataOffsetStream
6.172663	0.028000	dropped_samples	4289.622260	Dropped 7 samples	n/a	n/a	n/a	n/a	n/a	n/a	7	UoHDataOffsetStream
6.359971	0.012000	dropped_samples	4289.809567	Dropped 3 samples	n/a	n/a	n/a	n/a	n/a	n/a	3	UoHDataOffsetStream
6.724147	0.012000	dropped_samples	4290.173743	Dropped 3 samples	n/a	n/a	n/a	n/a	n/a	n/a	3	UoHDataOffsetStream
8.018066	0.012000	dropped_samples	4291.467663	Dropped 3 samples	n/a	n/a	n/a	n/a	n/a	n/a	3	UoHDataOffsetStream
8.257349	0.012000	dropped_samples	4291.706945	Dropped 3 samples	n/a	n/a	n/a	n/a	n/a	n/a	3	UoHDataOffsetStream
8.716350	0.012000	dropped_samples	4292.165946	Dropped 3 samples	n/a	n/a	n/a	n/a	n/a	n/a	3	UoHDataOffsetStream
9.121589	0.012000	dropped_samples	4292.571185	Dropped 3 samples	n/a	n/a	n/a	n/a	n/a	n/a	3	UoHDataOffsetStream
10.752474	0.004000	dropped_samples	4294.202070	Dropped 1 samples	n/a	n/a	n/a	n/a	n/a	n/a	1	UoHDataOffsetStream
12.124581	0.012000	dropped_samples	4295.574177	Dropped 3 samples	n/a	n/a	n/a	n/a	n/a	n/a	3	UoHDataOffsetStream
18.145060	0.012000	dropped_samples	4301.594656	Dropped 3 samples	n/a	n/a	n/a	n/a	n/a	n/a	3	UoHDataOffsetStream
18.843295	0.012000	dropped_samples	4302.292892	Dropped 3 samples	n/a	n/a	n/a	n/a	n/a	n/a	3	UoHDataOffsetStream
22.251625	0.004000	dropped_samples	4305.701222	Dropped 1 samples	n/a	n/a	n/a	n/a	n/a	n/a	1	UoHDataOffsetStream
23.740768	0.012000	dropped_samples	4307.190364	Dropped 3 samples	n/a	n/a	n/a	n/a	n/a	n/a	3	UoHDataOffsetStream
24.605005	0.004000	dropped_samples	4308.054602	Dropped 1 samples	n/a	n/a	n/a	n/a	n/a	n/a	1	UoHDataOffsetStream
25.371689	0.012000	dropped_samples	4308.821285	Dropped 3 samples	n/a	n/a	n/a	n/a	n/a	n/a	3	UoHDataOffsetStream
27.148949	0.004000	dropped_samples	4310.598546	Dropped 1 samples	n/a	n/a	n/a	n/a	n/a	n/a	1	UoHDataOffsetStream
28.584748	0.004000	dropped_samples	4312.034344	Dropped 1 samples	n/a	n/a	n/a	n/a	n/a	n/a	1	UoHDataOffsetStream
28.755432	0.004000	dropped_samples	4312.205029	Dropped 1 samples	n/a	n/a	n/a	n/a	n/a	n/a	1	UoHDataOffsetStream
30.438836	0.000000	started_tutorial_n_back	4313.888432	Started tutorial n-back	n/a	n/a	n/a	n/a	n/a	true	n/a	n-backMarkers
31.360415	0.012000	dropped_samples	4314.810012	Dropped 3 samples	n/a	n/a	n/a	n/a	n/a	n/a	3	UoHDataOffsetStream
32.813048	0.004000	dropped_samples	4316.262644	Dropped 1 samples	n/a	n/a	n/a	n/a	n/a	n/a	1	UoHDataOffsetStream
33.672418	0.012000	dropped_samples	4317.122015	Dropped 3 samples	n/a	n/a	n/a	n/a	n/a	n/a	3	UoHDataOffsetStream
34.131405	0.012000	dropped_samples	4317.581001	Dropped 3 samples	n/a	n/a	n/a	n/a	n/a	n/a	3	UoHDataOffsetStream
34.297416	0.012000	dropped_samples	4317.747013	Dropped 3 samples	n/a	n/a	n/a	n/a	n/a	n/a	3	UoHDataOffsetStream
35.259306	0.004000	dropped_samples	4318.708902	Dropped 1 samples	n/a	n/a	n/a	n/a	n/a	n/a	1	UoHDataOffsetStream
35.928285	0.008000	dropped_samples	4319.377882	Dropped 2 samples	n/a	n/a	n/a	n/a	n/a	n/a	2	UoHDataOffsetStream
39.004460	0.008000	dropped_samples	4322.454056	Dropped 2 samples	n/a	n/a	n/a	n/a	n/a	n/a	2	UoHDataOffsetStream
39.347481	0.004000	dropped_samples	4322.797077	Dropped 1 samples	n/a	n/a	n/a	n/a	n/a	n/a	1	UoHDataOffsetStream
39.580608	0.012000	dropped_samples	4323.030205	Dropped 3 samples	n/a	n/a	n/a	n/a	n/a	n/a	3	UoHDataOffsetStream
41.113826	0.004000	dropped_samples	4324.563422	Dropped 1 samples	n/a	n/a	n/a	n/a	n/a	n/a	1	UoHDataOffsetStream
42.866965	0.012000	dropped_samples	4326.316561	Dropped 3 samples	n/a	n/a	n/a	n/a	n/a	n/a	3	UoHDataOffsetStream
43.296430	0.004000	dropped_samples	4326.746026	Dropped 1 samples	n/a	n/a	n/a	n/a	n/a	n/a	1	UoHDataOffsetStream
43.904604	0.012000	dropped_samples	4327.354201	Dropped 3 samples	n/a	n/a	n/a	n/a	n/a	n/a	3	UoHDataOffsetStream
44.004627	0.012000	dropped_samples	4327.454223	Dropped 3 samples	n/a	n/a	n/a	n/a	n/a	n/a	3	UoHDataOffsetStream
44.006095	0.012000	dropped_samples	4327.455691	Dropped 3 samples	n/a	n/a	n/a	n/a	n/a	n/a	3	UoHDataOffsetStream
44.068131	0.028000	dropped_samples	4327.517728	Dropped 7 samples	n/a	n/a	n/a	n/a	n/a	n/a	7	UoHDataOffsetStream
44.356018	0.012000	dropped_samples	4327.805615	Dropped 3 samples	n/a	n/a	n/a	n/a	n/a	n/a	3	UoHDataOffsetStream
45.557186	0.004000	dropped_samples	4329.006783	Dropped 1 samples	n/a	n/a	n/a	n/a	n/a	n/a	1	UoHDataOffsetStream
46.538601	0.004000	dropped_samples	4329.988198	Dropped 1 samples	n/a	n/a	n/a	n/a	n/a	n/a	1	UoHDataOffsetStream
47.354028	0.012000	dropped_samples	4330.803624	Dropped 3 samples	n/a	n/a	n/a	n/a	n/a	n/a	3	UoHDataOffsetStream
49.859430	0.012000	dropped_samples	4333.309026	Dropped 3 samples	n/a	n/a	n/a	n/a	n/a	n/a	3	UoHDataOffsetStream
49.898018	0.012000	dropped_samples	4333.347615	Dropped 3 samples	n/a	n/a	n/a	n/a	n/a	n/a	3	UoHDataOffsetStream
52.387647	0.012000	dropped_samples	4335.837243	Dropped 3 samples	n/a	n/a	n/a	n/a	n/a	n/a	3	UoHDataOffsetStream
52.547545	0.004000	dropped_samples	4335.997141	Dropped 1 samples	n/a	n/a	n/a	n/a	n/a	n/a	1	UoHDataOffsetStream
52.588450	0.012000	dropped_samples	4336.038047	Dropped 3 samples	n/a	n/a	n/a	n/a	n/a	n/a	3	UoHDataOffsetStream
53.189073	0.004000	dropped_samples	4336.638669	Dropped 1 samples	n/a	n/a	n/a	n/a	n/a	n/a	1	UoHDataOffsetStream
53.281754	0.004000	dropped_samples	4336.731350	Dropped 1 samples	n/a	n/a	n/a	n/a	n/a	n/a	1	UoHDataOffsetStream
53.452689	0.012000	dropped_samples	4336.902285	Dropped 3 samples	n/a	n/a	n/a	n/a	n/a	n/a	3	UoHDataOffsetStream
53.980038	0.012000	dropped_samples	4337.429635	Dropped 3 samples	n/a	n/a	n/a	n/a	n/a	n/a	3	UoHDataOffsetStream
55.264781	0.008000	dropped_samples	4338.714378	Dropped 2 samples	n/a	n/a	n/a	n/a	n/a	n/a	2	UoHDataOffsetStream
58.921446	0.012000	dropped_samples	4342.371043	Dropped 3 samples	n/a	n/a	n/a	n/a	n/a	n/a	3	UoHDataOffsetStream
63.408815	0.008000	dropped_samples	4346.858411	Dropped 2 samples	n/a	n/a	n/a	n/a	n/a	n/a	2	UoHDataOffsetStream
68.189052	0.004000	dropped_samples	4351.638648	Dropped 1 samples	n/a	n/a	n/a	n/a	n/a	n/a	1	UoHDataOffsetStream
68.545461	0.012000	dropped_samples	4351.995058	Dropped 3 samples	n/a	n/a	n/a	n/a	n/a	n/a	3	UoHDataOffsetStream
69.170461	0.004000	dropped_samples	4352.620057	Dropped 1 samples	n/a	n/a	n/a	n/a	n/a	n/a	1	UoHDataOffsetStream
71.450777	0.012000	dropped_samples	4354.900373	Dropped 3 samples	n/a	n/a	n/a	n/a	n/a	n/a	3	UoHDataOffsetStream
73.203867	0.004000	dropped_samples	4356.653463	Dropped 1 samples	n/a	n/a	n/a	n/a	n/a	n/a	1	UoHDataOffsetStream
77.041589	0.012000	dropped_samples	4360.491185	Dropped 3 samples	n/a	n/a	n/a	n/a	n/a	n/a	3	UoHDataOffsetStream
79.492757	0.004000	dropped_samples	4362.942353	Dropped 1 samples	n/a	n/a	n/a	n/a	n/a	n/a	1	UoHDataOffsetStream
84.605067	0.004000	dropped_samples	4368.054663	Dropped 1 samples	n/a	n/a	n/a	n/a	n/a	n/a	1	UoHDataOffsetStream
87.756137	0.040000	dropped_samples	4371.205733	Dropped 10 samples	n/a	n/a	n/a	n/a	n/a	n/a	10	UoHDataOffsetStream
92.402935	0.012000	dropped_samples	4375.852531	Dropped 3 samples	n/a	n/a	n/a	n/a	n/a	n/a	3	UoHDataOffsetStream
94.131492	0.008000	dropped_samples	4377.581089	Dropped 2 samples	n/a	n/a	n/a	n/a	n/a	n/a	2	UoHDataOffsetStream
94.609970	0.004000	dropped_samples	4378.059567	Dropped 1 samples	n/a	n/a	n/a	n/a	n/a	n/a	1	UoHDataOffsetStream
94.971352	0.004000	dropped_samples	4378.420948	Dropped 1 samples	n/a	n/a	n/a	n/a	n/a	n/a	1	UoHDataOffsetStream
97.454460	0.000000	1-back	4380.904057	Steps:1 KeyPress:False Matched:False	1	1	false	false	Correct	true	n/a	n-backMarkers
97.730103	0.012000	dropped_samples	4381.179699	Dropped 3 samples	n/a	n/a	n/a	n/a	n/a	n/a	3	UoHDataOffsetStream
97.969401	0.012000	dropped_samples	4381.418997	Dropped 3 samples	n/a	n/a	n/a	n/a	n/a	n/a	3	UoHDataOffsetStream
98.477138	0.012000	dropped_samples	4381.926734	Dropped 3 samples	n/a	n/a	n/a	n/a	n/a	n/a	3	UoHDataOffsetStream
99.154967	0.000000	1-back	4382.604564	Steps:1 KeyPress:False Matched:False	1	1	false	false	Correct	true	n/a	n-backMarkers
100.857360	0.000000	1-back	4384.306957	Steps:1 KeyPress:False Matched:False	1	1	false	false	Correct	true	n/a	n-backMarkers
101.138444	0.012000	dropped_samples	4384.588041	Dropped 3 samples	n/a	n/a	n/a	n/a	n/a	n/a	3	UoHDataOffsetStream
102.558955	0.000000	1-back	4386.008551	Steps:1 KeyPress:False Matched:False	1	1	false	false	Correct	true	n/a	n-backMarkers
104.260379	0.000000	1-back	4387.709975	Steps:1 KeyPress:False Matched:False	1	1	false	false	Correct	true	n/a	n-backMarkers
104.907903	0.012000	dropped_samples	4388.357499	Dropped 3 samples	n/a	n/a	n/a	n/a	n/a	n/a	3	UoHDataOffsetStream
105.960950	0.000000	1-back	4389.410546	Steps:1 KeyPress:False Matched:False	1	1	false	false	Correct	true	n/a	n-backMarkers
107.663096	0.000000	1-back	4391.112693	Steps:1 KeyPress:False Matched:False	1	1	false	false	Correct	true	n/a	n-backMarkers
109.364152	0.000000	1-back	4392.813748	Steps:1 KeyPress:False Matched:False	1	1	false	false	Correct	true	n/a	n-backMarkers
109.492812	0.008000	dropped_samples	4392.942408	Dropped 2 samples	n/a	n/a	n/a	n/a	n/a	n/a	2	UoHDataOffsetStream
109.776204	0.004000	dropped_samples	4393.225800	Dropped 1 samples	n/a	n/a	n/a	n/a	n/a	n/a	1	UoHDataOffsetStream
110.498828	0.012000	dropped_samples	4393.948424	Dropped 3 samples	n/a	n/a	n/a	n/a	n/a	n/a	3	UoHDataOffsetStream
110.859942	0.004000	dropped_samples	4394.309539	Dropped 1 samples	n/a	n/a	n/a	n/a	n/a	n/a	1	UoHDataOffsetStream
111.065073	0.000000	1-back	4394.514670	Steps:1 KeyPress:False Matched:False	1	1	false	false	Correct	true	n/a	n-backMarkers
111.387337	0.008000	dropped_samples	4394.836933	Dropped 2 samples	n/a	n/a	n/a	n/a	n/a	n/a	2	UoHDataOffsetStream
111.911079	0.012000	dropped_samples	4395.360675	Dropped 3 samples	n/a	n/a	n/a	n/a	n/a	n/a	3	UoHDataOffsetStream
112.021278	0.012000	dropped_samples	4395.470875	Dropped 3 samples	n/a	n/a	n/a	n/a	n/a	n/a	3	UoHDataOffsetStream
112.022574	0.016000	dropped_samples	4395.472170	Dropped 4 samples	n/a	n/a	n/a	n/a	n/a	n/a	4	UoHDataOffsetStream
112.061206	0.032000	dropped_samples	4395.510803	Dropped 8 samples	n/a	n/a	n/a	n/a	n/a	n/a	8	UoHDataOffsetStream
112.754716	0.012000	dropped_samples	4396.204312	Dropped 3 samples	n/a	n/a	n/a	n/a	n/a	n/a	3	UoHDataOffsetStream
112.766200	0.000000	1-back	4396.215796	Steps:1 KeyPress:False Matched:False	1	1	false	false	Correct	true	n/a	n-backMarkers
114.466637	0.000000	1-back	4397.916233	Steps:1 KeyPress:False Matched:False	1	1	false	false	Correct	true	n/a	n-backMarkers
114.766046	0.012000	dropped_samples	4398.215642	Dropped 3 samples	n/a	n/a	n/a	n/a	n/a	n/a	3	UoHDataOffsetStream
114.795529	0.012000	dropped_samples	4398.245126	Dropped 3 samples	n/a	n/a	n/a	n/a	n/a	n/a	3	UoHDataOffsetStream
115.882003	0.012000	dropped_samples	4399.331599	Dropped 3 samples	n/a	n/a	n/a	n/a	n/a	n/a	3	UoHDataOffsetStream
115.923435	0.012000	dropped_samples	4399.373031	Dropped 3 samples	n/a	n/a	n/a	n/a	n/a	n/a	3	UoHDataOffsetStream
116.167960	0.000000	1-back	4399.617556	Steps:1 KeyPress:False Matched:False	1	1	false	false	Correct	true	n/a	n-backMarkers
116.524029	0.008000	dropped_samples	4399.973625	Dropped 2 samples	n/a	n/a	n/a	n/a	n/a	n/a	2	UoHDataOffsetStream
116.730654	0.004000	dropped_samples	4400.180251	Dropped 1 samples	n/a	n/a	n/a	n/a	n/a	n/a	1	UoHDataOffsetStream
117.769169	0.012000	dropped_samples	4401.218765	Dropped 3 samples	n/a	n/a	n/a	n/a	n/a	n/a	3	UoHDataOffsetStream
117.869136	0.000000	1-back	4401.318733	Steps:1 KeyPress:False Matched:True	0	1	false	true	Wrong	true	n/a	n-backMarkers
119.570092	0.000000	1-back	4403.019688	Steps:1 KeyPress:False Matched:False	1	1	false	false	Correct	true	n/a	n-backMarkers
121.133418	0.012000	dropped_samples	4404.583014	Dropped 3 samples	n/a	n/a	n/a	n/a	n/a	n/a	3	UoHDataOffsetStream
121.271191	0.000000	1-back	4404.720787	Steps:1 KeyPress:False Matched:False	1	1	false	false	Correct	true	n/a	n-backMarkers
122.972983	0.000000	1-back	4406.422579	Steps:1 KeyPress:False Matched:False	1	1	false	false	Correct	true	n/a	n-backMarkers
124.658801	0.012000	dropped_samples	4408.108397	Dropped 3 samples	n/a	n/a	n/a	n/a	n/a	n/a	3	UoHDataOffsetStream
124.673888	0.000000	1-back	4408.123484	Steps:1 KeyPress:False Matched:False	1	1	false	false	Correct	true	n/a	n-backMarkers
125.498681	0.004000	dropped_samples	4408.948277	Dropped 1 samples	n/a	n/a	n/a	n/a	n/a	n/a	1	UoHDataOffsetStream
125.693984	0.004000	dropped_samples	4409.143581	Dropped 1 samples	n/a	n/a	n/a	n/a	n/a	n/a	1	UoHDataOffsetStream
126.374844	0.000000	1-back	4409.824440	Steps:1 KeyPress:False Matched:True	0	1	false	true	Wrong	true	n/a	n-backMarkers
126.626589	0.012000	dropped_samples	4410.076185	Dropped 3 samples	n/a	n/a	n/a	n/a	n/a	n/a	3	UoHDataOffsetStream
128.075149	0.000000	1-back	4411.524746	Steps:1 KeyPress:False Matched:False	1	1	false	false	Correct	true	n/a	n-backMarkers
128.281867	0.004000	dropped_samples	4411.731464	Dropped 1 samples	n/a	n/a	n/a	n/a	n/a	n/a	1	UoHDataOffsetStream
129.776735	0.000000	1-back	4413.226331	Steps:1 KeyPress:False Matched:False	1	1	false	false	Correct	true	n/a	n-backMarkers
130.444916	0.004000	dropped_samples	4413.894513	Dropped 1 samples	n/a	n/a	n/a	n/a	n/a	n/a	1	UoHDataOffsetStream
130.537993	0.004000	dropped_samples	4413.987590	Dropped 1 samples	n/a	n/a	n/a	n/a	n/a	n/a	1	UoHDataOffsetStream
131.477373	0.000000	1-back	4414.926969	Steps:1 KeyPress:False Matched:False	1	1	false	false	Correct	true	n/a	n-backMarkers
133.613846	0.012000	dropped_samples	4417.063442	Dropped 3 samples	n/a	n/a	n/a	n/a	n/a	n/a	3	UoHDataOffsetStream
133.779929	0.004000	dropped_samples	4417.229526	Dropped 1 samples	n/a	n/a	n/a	n/a	n/a	n/a	1	UoHDataOffsetStream
135.532810	0.012000	dropped_samples	4418.982406	Dropped 3 samples	n/a	n/a	n/a	n/a	n/a	n/a	3	UoHDataOffsetStream
136.777960	0.008000	dropped_samples	4420.227556	Dropped 2 samples	n/a	n/a	n/a	n/a	n/a	n/a	2	UoHDataOffsetStream
137.188124	0.004000	dropped_samples	4420.637720	Dropped 1 samples	n/a	n/a	n/a	n/a	n/a	n/a	1	UoHDataOffsetStream
137.764327	0.008000	dropped_samples	4421.213924	Dropped 2 samples	n/a	n/a	n/a	n/a	n/a	n/a	2	UoHDataOffsetStream
140.189849	0.000000	2-back	4423.639446	Steps:2 KeyPress:False Matched:False	1	2	false	false	Correct	true	n/a	n-backMarkers
140.620847	0.012000	dropped_samples	4424.070443	Dropped 3 samples	n/a	n/a	n/a	n/a	n/a	n/a	3	UoHDataOffsetStream
141.890670	0.000000	2-back	4425.340267	Steps:2 KeyPress:False Matched:False	1	2	false	false	Correct	true	n/a	n-backMarkers
142.006850	0.012000	dropped_samples	4425.456447	Dropped 3 samples	n/a	n/a	n/a	n/a	n/a	n/a	3	UoHDataOffsetStream
142.061164	0.008000	dropped_samples	4425.510760	Dropped 2 samples	n/a	n/a	n/a	n/a	n/a	n/a	2	UoHDataOffsetStream
143.477171	0.012000	dropped_samples	4426.926768	Dropped 3 samples	n/a	n/a	n/a	n/a	n/a	n/a	3	UoHDataOffsetStream
143.592083	0.000000	2-back	4427.041679	Steps:2 KeyPress:True Matched:False	0	2	true	false	Wrong	true	n/a	n-backMarkers
143.882459	0.012000	dropped_samples	4427.332055	Dropped 3 samples	n/a	n/a	n/a	n/a	n/a	n/a	3	UoHDataOffsetStream
144.170579	0.012000	dropped_samples	4427.620176	Dropped 3 samples	n/a	n/a	n/a	n/a	n/a	n/a	3	UoHDataOffsetStream
144.778620	0.004000	dropped_samples	4428.228216	Dropped 1 samples	n/a	n/a	n/a	n/a	n/a	n/a	1	UoHDataOffsetStream
145.078843	0.012000	dropped_samples	4428.528440	Dropped 3 samples	n/a	n/a	n/a	n/a	n/a	n/a	3	UoHDataOffsetStream
145.132458	0.008000	dropped_samples	4428.582054	Dropped 2 samples	n/a	n/a	n/a	n/a	n/a	n/a	2	UoHDataOffsetStream
145.293081	0.000000	2-back	4428.742677	Steps:2 KeyPress:False Matched:False	1	2	false	false	Correct	true	n/a	n-backMarkers
145.684215	0.012000	dropped_samples	4429.133811	Dropped 3 samples	n/a	n/a	n/a	n/a	n/a	n/a	3	UoHDataOffsetStream
145.859339	0.004000	dropped_samples	4429.308936	Dropped 1 samples	n/a	n/a	n/a	n/a	n/a	n/a	1	UoHDataOffsetStream
145.899063	0.012000	dropped_samples	4429.348659	Dropped 3 samples	n/a	n/a	n/a	n/a	n/a	n/a	3	UoHDataOffsetStream
146.993837	0.000000	2-back	4430.443434	Steps:2 KeyPress:False Matched:False	1	2	false	false	Correct	true	n/a	n-backMarkers
147.676389	0.012000	dropped_samples	4431.125985	Dropped 3 samples	n/a	n/a	n/a	n/a	n/a	n/a	3	UoHDataOffsetStream
148.694282	0.000000	2-back	4432.143878	Steps:2 KeyPress:False Matched:False	1	2	false	false	Correct	true	n/a	n-backMarkers
148.839592	0.012000	dropped_samples	4432.289189	Dropped 3 samples	n/a	n/a	n/a	n/a	n/a	n/a	3	UoHDataOffsetStream
148.877597	0.008000	dropped_samples	4432.327193	Dropped 2 samples	n/a	n/a	n/a	n/a	n/a	n/a	2	UoHDataOffsetStream
149.932263	0.004000	dropped_samples	4433.381859	Dropped 1 samples	n/a	n/a	n/a	n/a	n/a	n/a	1	UoHDataOffsetStream
150.395877	0.000000	2-back	4433.845473	Steps:2 KeyPress:True Matched:True	1	2	true	true	Correct	true	n/a	n-backMarkers
150.410822	0.008000	dropped_samples	4433.860418	Dropped 2 samples	n/a	n/a	n/a	n/a	n/a	n/a	2	UoHDataOffsetStream
150.821018	0.004000	dropped_samples	4434.270614	Dropped 1 samples	n/a	n/a	n/a	n/a	n/a	n/a	1	UoHDataOffsetStream
150.913771	0.004000	dropped_samples	4434.363367	Dropped 1 samples	n/a	n/a	n/a	n/a	n/a	n/a	1	UoHDataOffsetStream
151.133445	0.008000	dropped_samples	4434.583042	Dropped 2 samples	n/a	n/a	n/a	n/a	n/a	n/a	2	UoHDataOffsetStream
152.096470	0.000000	2-back	4435.546066	Steps:2 KeyPress:False Matched:False	1	2	false	false	Correct	true	n/a	n-backMarkers
152.549726	0.004000	dropped_samples	4435.999322	Dropped 1 samples	n/a	n/a	n/a	n/a	n/a	n/a	1	UoHDataOffsetStream
153.796942	0.000000	2-back	4437.246539	Steps:2 KeyPress:False Matched:False	1	2	false	false	Correct	true	n/a	n-backMarkers
154.229202	0.012000	dropped_samples	4437.678799	Dropped 3 samples	n/a	n/a	n/a	n/a	n/a	n/a	3	UoHDataOffsetStream
155.357085	0.012000	dropped_samples	4438.806681	Dropped 3 samples	n/a	n/a	n/a	n/a	n/a	n/a	3	UoHDataOffsetStream
155.497709	0.000000	2-back	4438.947305	Steps:2 KeyPress:False Matched:False	1	2	false	false	Correct	true	n/a	n-backMarkers
155.833615	0.012000	dropped_samples	4439.283212	Dropped 3 samples	n/a	n/a	n/a	n/a	n/a	n/a	3	UoHDataOffsetStream
155.884627	0.012000	dropped_samples	4439.334223	Dropped 3 samples	n/a	n/a	n/a	n/a	n/a	n/a	3	UoHDataOffsetStream
157.199869	0.000000	2-back	4440.649465	Steps:2 KeyPress:True Matched:False	0	2	true	false	Wrong	true	n/a	n-backMarkers
158.901246	0.000000	2-back	4442.350842	Steps:2 KeyPress:False Matched:True	0	2	false	true	Wrong	true	n/a	n-backMarkers
160.601821	0.000000	2-back	4444.051417	Steps:2 KeyPress:False Matched:False	1	2	false	false	Correct	true	n/a	n-backMarkers
161.714564	0.012000	dropped_samples	4445.164160	Dropped 3 samples	n/a	n/a	n/a	n/a	n/a	n/a	3	UoHDataOffsetStream
162.303595	0.000000	2-back	4445.753192	Steps:2 KeyPress:False Matched:False	1	2	false	false	Correct	true	n/a	n-backMarkers
164.005058	0.000000	2-back	4447.454654	Steps:2 KeyPress:False Matched:False	1	2	false	false	Correct	true	n/a	n-backMarkers
164.589521	0.004000	dropped_samples	4448.039117	Dropped 1 samples	n/a	n/a	n/a	n/a	n/a	n/a	1	UoHDataOffsetStream
164.619904	0.012000	dropped_samples	4448.069500	Dropped 3 samples	n/a	n/a	n/a	n/a	n/a	n/a	3	UoHDataOffsetStream
165.663081	0.012000	dropped_samples	4449.112678	Dropped 3 samples	n/a	n/a	n/a	n/a	n/a	n/a	3	UoHDataOffsetStream
165.705468	0.000000	2-back	4449.155064	Steps:2 KeyPress:True Matched:False	0	2	true	false	Wrong	true	n/a	n-backMarkers
166.328559	0.012000	dropped_samples	4449.778156	Dropped 3 samples	n/a	n/a	n/a	n/a	n/a	n/a	3	UoHDataOffsetStream
166.372708	0.012000	dropped_samples	4449.822305	Dropped 3 samples	n/a	n/a	n/a	n/a	n/a	n/a	3	UoHDataOffsetStream
167.406828	0.000000	2-back	4450.856425	Steps:2 KeyPress:False Matched:False	1	2	false	false	Correct	true	n/a	n-backMarkers
168.174487	0.004000	dropped_samples	4451.624084	Dropped 1 samples	n/a	n/a	n/a	n/a	n/a	n/a	1	UoHDataOffsetStream
169.107068	0.000000	2-back	4452.556664	Steps:2 KeyPress:False Matched:False	1	2	false	false	Correct	true	n/a	n-backMarkers
170.283912	0.008000	dropped_samples	4453.733508	Dropped 2 samples	n/a	n/a	n/a	n/a	n/a	n/a	2	UoHDataOffsetStream
170.808914	0.000000	2-back	4454.258510	Steps:2 KeyPress:True Matched:False	0	2	true	false	Wrong	true	n/a	n-backMarkers
172.178322	0.012000	dropped_samples	4455.627919	Dropped 3 samples	n/a	n/a	n/a	n/a	n/a	n/a	3	UoHDataOffsetStream
172.509063	0.000000	2-back	4455.958659	Steps:2 KeyPress:False Matched:True	0	2	false	true	Wrong	true	n/a	n-backMarkers
172.564093	0.012000	dropped_samples	4456.013689	Dropped 3 samples	n/a	n/a	n/a	n/a	n/a	n/a	3	UoHDataOffsetStream
173.237939	0.012000	dropped_samples	4456.687536	Dropped 3 samples	n/a	n/a	n/a	n/a	n/a	n/a	3	UoHDataOffsetStream
176.021143	0.012000	dropped_samples	4459.470739	Dropped 3 samples	n/a	n/a	n/a	n/a	n/a	n/a	3	UoHDataOffsetStream
177.149055	0.004000	dropped_samples	4460.598652	Dropped 1 samples	n/a	n/a	n/a	n/a	n/a	n/a	1	UoHDataOffsetStream
181.208123	0.000000	3-back	4464.657720	Steps:3 KeyPress:False Matched:False	1	3	false	false	Correct	true	n/a	n-backMarkers
181.685414	0.004000	dropped_samples	4465.135010	Dropped 1 samples	n/a	n/a	n/a	n/a	n/a	n/a	1	UoHDataOffsetStream
182.909035	0.000000	3-back	4466.358631	Steps:3 KeyPress:False Matched:False	1	3	false	false	Correct	true	n/a	n-backMarkers
184.609995	0.000000	3-back	4468.059592	Steps:3 KeyPress:False Matched:False	1	3	false	false	Correct	true	n/a	n-backMarkers
186.310339	0.000000	3-back	4469.759936	Steps:3 KeyPress:False Matched:False	1	3	false	false	Correct	true	n/a	n-backMarkers
188.011877	0.000000	3-back	4471.461473	Steps:3 KeyPress:False Matched:False	1	3	false	false	Correct	true	n/a	n-backMarkers
189.712075	0.000000	3-back	4473.161671	Steps:3 KeyPress:False Matched:False	1	3	false	false	Correct	true	n/a	n-backMarkers
190.850259	0.004000	dropped_samples	4474.299855	Dropped 1 samples	n/a	n/a	n/a	n/a	n/a	n/a	1	UoHDataOffsetStream
191.412155	0.000000	3-back	4474.861751	Steps:3 KeyPress:True Matched:False	0	3	true	false	Wrong	true	n/a	n-backMarkers
192.603185	0.008000	dropped_samples	4476.052782	Dropped 2 samples	n/a	n/a	n/a	n/a	n/a	n/a	2	UoHDataOffsetStream
193.106110	0.004000	dropped_samples	4476.555706	Dropped 1 samples	n/a	n/a	n/a	n/a	n/a	n/a	1	UoHDataOffsetStream
193.113271	0.000000	3-back	4476.562868	Steps:3 KeyPress:False Matched:True	0	3	false	true	Wrong	true	n/a	n-backMarkers
194.141245	0.008000	dropped_samples	4477.590841	Dropped 2 samples	n/a	n/a	n/a	n/a	n/a	n/a	2	UoHDataOffsetStream
194.815002	0.000000	3-back	4478.264598	Steps:3 KeyPress:False Matched:False	1	3	false	false	Correct	true	n/a	n-backMarkers
196.084642	0.008000	dropped_samples	4479.534239	Dropped 2 samples	n/a	n/a	n/a	n/a	n/a	n/a	2	UoHDataOffsetStream
196.516263	0.000000	3-back	4479.965859	Steps:3 KeyPress:True Matched:False	0	3	true	false	Wrong	true	n/a	n-backMarkers
197.310368	0.004000	dropped_samples	4480.759964	Dropped 1 samples	n/a	n/a	n/a	n/a	n/a	n/a	1	UoHDataOffsetStream
198.216733	0.000000	3-back	4481.666330	Steps:3 KeyPress:False Matched:True	0	3	false	true	Wrong	true	n/a	n-backMarkers
199.916882	0.000000	3-back	4483.366478	Steps:3 KeyPress:False Matched:False	1	3	false	false	Correct	true	n/a	n-backMarkers
200.020220	0.012000	dropped_samples	4483.469816	Dropped 3 samples	n/a	n/a	n/a	n/a	n/a	n/a	3	UoHDataOffsetStream
200.422222	0.012000	dropped_samples	4483.871818	Dropped 3 samples	n/a	n/a	n/a	n/a	n/a	n/a	3	UoHDataOffsetStream
200.430727	0.012000	dropped_samples	4483.880324	Dropped 3 samples	n/a	n/a	n/a	n/a	n/a	n/a	3	UoHDataOffsetStream
201.558278	0.004000	dropped_samples	4485.007874	Dropped 1 samples	n/a	n/a	n/a	n/a	n/a	n/a	1	UoHDataOffsetStream
201.617956	0.000000	3-back	4485.067552	Steps:3 KeyPress:False Matched:False	1	3	false	false	Correct	true	n/a	n-backMarkers
201.925978	0.004000	dropped_samples	4485.375574	Dropped 1 samples	n/a	n/a	n/a	n/a	n/a	n/a	1	UoHDataOffsetStream
203.318934	0.000000	3-back	4486.768531	Steps:3 KeyPress:True Matched:False	0	3	true	false	Wrong	true	n/a	n-backMarkers
205.019151	0.000000	3-back	4488.468747	Steps:3 KeyPress:False Matched:False	1	3	false	false	Correct	true	n/a	n-backMarkers
205.659833	0.012000	dropped_samples	4489.109429	Dropped 3 samples	n/a	n/a	n/a	n/a	n/a	n/a	3	UoHDataOffsetStream
206.720805	0.000000	3-back	4490.170401	Steps:3 KeyPress:False Matched:False	1	3	false	false	Correct	true	n/a	n-backMarkers
207.823011	0.004000	dropped_samples	4491.272607	Dropped 1 samples	n/a	n/a	n/a	n/a	n/a	n/a	1	UoHDataOffsetStream
208.422946	0.000000	3-back	4491.872543	Steps:3 KeyPress:False Matched:False	1	3	false	false	Correct	true	n/a	n-backMarkers
209.125359	0.008000	dropped_samples	4492.574955	Dropped 2 samples	n/a	n/a	n/a	n/a	n/a	n/a	2	UoHDataOffsetStream
210.078818	0.004000	dropped_samples	4493.528414	Dropped 1 samples	n/a	n/a	n/a	n/a	n/a	n/a	1	UoHDataOffsetStream
210.124685	0.000000	3-back	4493.574282	Steps:3 KeyPress:False Matched:False	1	3	false	false	Correct	true	n/a	n-backMarkers
211.538726	0.012000	dropped_samples	4494.988322	Dropped 3 samples	n/a	n/a	n/a	n/a	n/a	n/a	3	UoHDataOffsetStream
211.824736	0.000000	3-back	4495.274332	Steps:3 KeyPress:False Matched:False	1	3	false	false	Correct	true	n/a	n-backMarkers
213.525258	0.000000	3-back	4496.974855	Steps:3 KeyPress:False Matched:False	1	3	false	false	Correct	true	n/a	n-backMarkers
215.786808	0.012000	dropped_samples	4499.236405	Dropped 3 samples	n/a	n/a	n/a	n/a	n/a	n/a	3	UoHDataOffsetStream
216.667914	0.004000	dropped_samples	4500.117510	Dropped 1 samples	n/a	n/a	n/a	n/a	n/a	n/a	1	UoHDataOffsetStream
219.102214	0.004000	dropped_samples	4502.551810	Dropped 1 samples	n/a	n/a	n/a	n/a	n/a	n/a	1	UoHDataOffsetStream
222.222941	0.000000	4-back	4505.672538	Steps:4 KeyPress:False Matched:True	0	4	false	true	Wrong	true	n/a	n-backMarkers
222.603217	0.008000	dropped_samples	4506.052813	Dropped 2 samples	n/a	n/a	n/a	n/a	n/a	n/a	2	UoHDataOffsetStream
223.394790	0.004000	dropped_samples	4506.844386	Dropped 1 samples	n/a	n/a	n/a	n/a	n/a	n/a	1	UoHDataOffsetStream
223.924062	0.000000	4-back	4507.373658	Steps:4 KeyPress:False Matched:False	1	4	false	false	Correct	true	n/a	n-backMarkers
224.527045	0.004000	dropped_samples	4507.976642	Dropped 1 samples	n/a	n/a	n/a	n/a	n/a	n/a	1	UoHDataOffsetStream
225.624835	0.000000	4-back	4509.074431	Steps:4 KeyPress:False Matched:False	1	4	false	false	Correct	true	n/a	n-backMarkers
227.114944	0.004000	dropped_samples	4510.564541	Dropped 1 samples	n/a	n/a	n/a	n/a	n/a	n/a	1	UoHDataOffsetStream
227.325452	0.000000	4-back	4510.775048	Steps:4 KeyPress:False Matched:False	1	4	false	false	Correct	true	n/a	n-backMarkers
227.544845	0.012000	dropped_samples	4510.994442	Dropped 3 samples	n/a	n/a	n/a	n/a	n/a	n/a	3	UoHDataOffsetStream
229.026029	0.000000	4-back	4512.475626	Steps:4 KeyPress:True Matched:True	1	4	true	true	Correct	true	n/a	n-backMarkers
230.726816	0.000000	4-back	4514.176412	Steps:4 KeyPress:False Matched:True	0	4	false	true	Wrong	true	n/a	n-backMarkers
231.465110	0.004000	dropped_samples	4514.914706	Dropped 1 samples	n/a	n/a	n/a	n/a	n/a	n/a	1	UoHDataOffsetStream
231.509483	0.012000	dropped_samples	4514.959079	Dropped 3 samples	n/a	n/a	n/a	n/a	n/a	n/a	3	UoHDataOffsetStream
231.748726	0.012000	dropped_samples	4515.198322	Dropped 3 samples	n/a	n/a	n/a	n/a	n/a	n/a	3	UoHDataOffsetStream
232.426850	0.000000	4-back	4515.876447	Steps:4 KeyPress:False Matched:False	1	4	false	false	Correct	true	n/a	n-backMarkers
234.127743	0.000000	4-back	4517.577339	Steps:4 KeyPress:False Matched:False	1	4	false	false	Correct	true	n/a	n-backMarkers
234.918048	0.004000	dropped_samples	4518.367645	Dropped 1 samples	n/a	n/a	n/a	n/a	n/a	n/a	1	UoHDataOffsetStream
235.420615	0.012000	dropped_samples	4518.870211	Dropped 3 samples	n/a	n/a	n/a	n/a	n/a	n/a	3	UoHDataOffsetStream
235.829959	0.000000	4-back	4519.279555	Steps:4 KeyPress:True Matched:False	0	4	true	false	Wrong	true	n/a	n-backMarkers
236.333741	0.008000	dropped_samples	4519.783337	Dropped 2 samples	n/a	n/a	n/a	n/a	n/a	n/a	2	UoHDataOffsetStream
237.510468	0.004000	dropped_samples	4520.960064	Dropped 1 samples	n/a	n/a	n/a	n/a	n/a	n/a	1	UoHDataOffsetStream
237.531819	0.000000	4-back	4520.981416	Steps:4 KeyPress:False Matched:True	0	4	false	true	Wrong	true	n/a	n-backMarkers
238.467510	0.008000	dropped_samples	4521.917107	Dropped 2 samples	n/a	n/a	n/a	n/a	n/a	n/a	2	UoHDataOffsetStream
238.687210	0.008000	dropped_samples	4522.136806	Dropped 2 samples	n/a	n/a	n/a	n/a	n/a	n/a	2	UoHDataOffsetStream
239.232082	0.000000	4-back	4522.681679	Steps:4 KeyPress:False Matched:True	0	4	false	true	Wrong	true	n/a	n-backMarkers
239.446889	0.004000	dropped_samples	4522.896486	Dropped 1 samples	n/a	n/a	n/a	n/a	n/a	n/a	1	UoHDataOffsetStream
239.448722	0.012000	dropped_samples	4522.898319	Dropped 3 samples	n/a	n/a	n/a	n/a	n/a	n/a	3	UoHDataOffsetStream
239.505214	0.004000	dropped_samples	4522.954810	Dropped 1 samples	n/a	n/a	n/a	n/a	n/a	n/a	1	UoHDataOffsetStream
239.790849	0.004000	dropped_samples	4523.240446	Dropped 1 samples	n/a	n/a	n/a	n/a	n/a	n/a	1	UoHDataOffsetStream
240.933866	0.000000	4-back	4524.383462	Steps:4 KeyPress:False Matched:False	1	4	false	false	Correct	true	n/a	n-backMarkers
241.685259	0.004000	dropped_samples	4525.134856	Dropped 1 samples	n/a	n/a	n/a	n/a	n/a	n/a	1	UoHDataOffsetStream
241.758579	0.004000	dropped_samples	4525.208176	Dropped 1 samples	n/a	n/a	n/a	n/a	n/a	n/a	1	UoHDataOffsetStream
242.236989	0.012000	dropped_samples	4525.686586	Dropped 3 samples	n/a	n/a	n/a	n/a	n/a	n/a	3	UoHDataOffsetStream
242.634536	0.000000	4-back	4526.084132	Steps:4 KeyPress:False Matched:False	1	4	false	false	Correct	true	n/a	n-backMarkers
243.223379	0.008000	dropped_samples	4526.672975	Dropped 2 samples	n/a	n/a	n/a	n/a	n/a	n/a	2	UoHDataOffsetStream
244.334837	0.000000	4-back	4527.784433	Steps:4 KeyPress:False Matched:False	1	4	false	false	Correct	true	n/a	n-backMarkers
246.036061	0.000000	4-back	4529.485657	Steps:4 KeyPress:True Matched:True	1	4	true	true	Correct	true	n/a	n-backMarkers
246.914743	0.012000	dropped_samples	4530.364340	Dropped 3 samples	n/a	n/a	n/a	n/a	n/a	n/a	3	UoHDataOffsetStream
247.324910	0.012000	dropped_samples	4530.774506	Dropped 3 samples	n/a	n/a	n/a	n/a	n/a	n/a	3	UoHDataOffsetStream
247.736192	0.000000	4-back	4531.185789	Steps:4 KeyPress:False Matched:False	1	4	false	false	Correct	true	n/a	n-backMarkers
249.436508	0.000000	4-back	4532.886105	Steps:4 KeyPress:False Matched:False	1	4	false	false	Correct	true	n/a	n-backMarkers
249.747025	0.004000	dropped_samples	4533.196621	Dropped 1 samples	n/a	n/a	n/a	n/a	n/a	n/a	1	UoHDataOffsetStream
250.757546	0.004000	dropped_samples	4534.207143	Dropped 1 samples	n/a	n/a	n/a	n/a	n/a	n/a	1	UoHDataOffsetStream
251.137597	0.000000	4-back	4534.587193	Steps:4 KeyPress:False Matched:True	0	4	false	true	Wrong	true	n/a	n-backMarkers
251.763501	0.004000	dropped_samples	4535.213097	Dropped 1 samples	n/a	n/a	n/a	n/a	n/a	n/a	1	UoHDataOffsetStream
252.534872	0.012000	dropped_samples	4535.984468	Dropped 3 samples	n/a	n/a	n/a	n/a	n/a	n/a	3	UoHDataOffsetStream
252.837855	0.000000	4-back	4536.287452	Steps:4 KeyPress:False Matched:False	1	4	false	false	Correct	true	n/a	n-backMarkers
252.915776	0.008000	dropped_samples	4536.365372	Dropped 2 samples	n/a	n/a	n/a	n/a	n/a	n/a	2	UoHDataOffsetStream
254.539722	0.000000	4-back	4537.989318	Steps:4 KeyPress:True Matched:False	0	4	true	false	Wrong	true	n/a	n-backMarkers
255.244331	0.000000	finished_tutorial_n_back	4538.693927	Finished tutorial n-back	n/a	n/a	n/a	n/a	n/a	true	n/a	n-backMarkers
258.486975	0.004000	dropped_samples	4541.936571	Dropped 1 samples	n/a	n/a	n/a	n/a	n/a	n/a	1	UoHDataOffsetStream
261.631539	0.004000	dropped_samples	4545.081135	Dropped 1 samples	n/a	n/a	n/a	n/a	n/a	n/a	1	UoHDataOffsetStream
262.251690	0.004000	dropped_samples	4545.701286	Dropped 1 samples	n/a	n/a	n/a	n/a	n/a	n/a	1	UoHDataOffsetStream
262.710647	0.008000	dropped_samples	4546.160243	Dropped 2 samples	n/a	n/a	n/a	n/a	n/a	n/a	2	UoHDataOffsetStream
266.118932	0.012000	dropped_samples	4549.568528	Dropped 3 samples	n/a	n/a	n/a	n/a	n/a	n/a	3	UoHDataOffsetStream
267.510486	0.008000	dropped_samples	4550.960082	Dropped 2 samples	n/a	n/a	n/a	n/a	n/a	n/a	2	UoHDataOffsetStream
268.334523	0.000000	started_n_back	4551.784119	Started n-back	n/a	n/a	n/a	n/a	n/a	false	n/a	n-backMarkers
269.405012	0.004000	dropped_samples	4552.854608	Dropped 1 samples	n/a	n/a	n/a	n/a	n/a	n/a	1	UoHDataOffsetStream
270.293749	0.008000	dropped_samples	4553.743346	Dropped 2 samples	n/a	n/a	n/a	n/a	n/a	n/a	2	UoHDataOffsetStream
272.261474	0.012000	dropped_samples	4555.711071	Dropped 3 samples	n/a	n/a	n/a	n/a	n/a	n/a	3	UoHDataOffsetStream
275.283903	0.008000	dropped_samples	4558.733499	Dropped 2 samples	n/a	n/a	n/a	n/a	n/a	n/a	2	UoHDataOffsetStream
275.620808	0.012000	dropped_samples	4559.070404	Dropped 3 samples	n/a	n/a	n/a	n/a	n/a	n/a	3	UoHDataOffsetStream
276.348555	0.000000	1-back	4559.798151	Steps:1 KeyPress:False Matched:False	1	1	false	false	Correct	false	n/a	n-backMarkers
277.515355	0.008000	dropped_samples	4560.964951	Dropped 2 samples	n/a	n/a	n/a	n/a	n/a	n/a	2	UoHDataOffsetStream
278.050242	0.000000	1-back	4561.499838	Steps:1 KeyPress:False Matched:False	1	1	false	false	Correct	false	n/a	n-backMarkers
278.245974	0.012000	dropped_samples	4561.695570	Dropped 3 samples	n/a	n/a	n/a	n/a	n/a	n/a	3	UoHDataOffsetStream
278.643313	0.012000	dropped_samples	4562.092909	Dropped 3 samples	n/a	n/a	n/a	n/a	n/a	n/a	3	UoHDataOffsetStream
279.751446	0.000000	1-back	4563.201042	Steps:1 KeyPress:False Matched:True	0	1	false	true	Wrong	false	n/a	n-backMarkers
279.795602	0.004000	dropped_samples	4563.245199	Dropped 1 samples	n/a	n/a	n/a	n/a	n/a	n/a	1	UoHDataOffsetStream
280.996854	0.012000	dropped_samples	4564.446451	Dropped 3 samples	n/a	n/a	n/a	n/a	n/a	n/a	3	UoHDataOffsetStream
281.260493	0.012000	dropped_samples	4564.710089	Dropped 3 samples	n/a	n/a	n/a	n/a	n/a	n/a	3	UoHDataOffsetStream
281.451500	0.000000	1-back	4564.901096	Steps:1 KeyPress:False Matched:False	1	1	false	false	Correct	false	n/a	n-backMarkers
282.173582	0.004000	dropped_samples	4565.623178	Dropped 1 samples	n/a	n/a	n/a	n/a	n/a	n/a	1	UoHDataOffsetStream
283.153409	0.000000	1-back	4566.603005	Steps:1 KeyPress:True Matched:False	0	1	true	false	Wrong	false	n/a	n-backMarkers
283.228412	0.008000	dropped_samples	4566.678008	Dropped 2 samples	n/a	n/a	n/a	n/a	n/a	n/a	2	UoHDataOffsetStream
283.423643	0.004000	dropped_samples	4566.873239	Dropped 1 samples	n/a	n/a	n/a	n/a	n/a	n/a	1	UoHDataOffsetStream
283.731204	0.008000	dropped_samples	4567.180800	Dropped 2 samples	n/a	n/a	n/a	n/a	n/a	n/a	2	UoHDataOffsetStream
283.926502	0.004000	dropped_samples	4567.376098	Dropped 1 samples	n/a	n/a	n/a	n/a	n/a	n/a	1	UoHDataOffsetStream
284.854356	0.000000	1-back	4568.303952	Steps:1 KeyPress:False Matched:False	1	1	false	false	Correct	false	n/a	n-backMarkers
286.556426	0.000000	1-back	4570.006022	Steps:1 KeyPress:True Matched:False	0	1	true	false	Wrong	false	n/a	n-backMarkers
288.258217	0.000000	1-back	4571.707813	Steps:1 KeyPress:False Matched:False	1	1	false	false	Correct	false	n/a	n-backMarkers
289.444163	0.012000	dropped_samples	4572.893759	Dropped 3 samples	n/a	n/a	n/a	n/a	n/a	n/a	3	UoHDataOffsetStream
289.958368	0.000000	1-back	4573.407964	Steps:1 KeyPress:True Matched:False	0	1	true	false	Wrong	false	n/a	n-backMarkers
290.523454	0.012000	dropped_samples	4573.973050	Dropped 3 samples	n/a	n/a	n/a	n/a	n/a	n/a	3	UoHDataOffsetStream
291.660381	0.000000	1-back	4575.109977	Steps:1 KeyPress:False Matched:False	1	1	false	false	Correct	false	n/a	n-backMarkers
291.939242	0.004000	dropped_samples	4575.388839	Dropped 1 samples	n/a	n/a	n/a	n/a	n/a	n/a	1	UoHDataOffsetStream
293.361254	0.000000	1-back	4576.810850	Steps:1 KeyPress:True Matched:False	0	1	true	false	Wrong	false	n/a	n-backMarkers
293.668276	0.012000	dropped_samples	4577.117872	Dropped 3 samples	n/a	n/a	n/a	n/a	n/a	n/a	3	UoHDataOffsetStream
293.692124	0.012000	dropped_samples	4577.141720	Dropped 3 samples	n/a	n/a	n/a	n/a	n/a	n/a	3	UoHDataOffsetStream
295.059377	0.004000	dropped_samples	4578.508973	Dropped 1 samples	n/a	n/a	n/a	n/a	n/a	n/a	1	UoHDataOffsetStream
295.062203	0.000000	1-back	4578.511800	Steps:1 KeyPress:False Matched:False	1	1	false	false	Correct	false	n/a	n-backMarkers
295.279036	0.004000	dropped_samples	4578.728632	Dropped 1 samples	n/a	n/a	n/a	n/a	n/a	n/a	1	UoHDataOffsetStream
296.045663	0.004000	dropped_samples	4579.495260	Dropped 1 samples	n/a	n/a	n/a	n/a	n/a	n/a	1	UoHDataOffsetStream
296.762665	0.000000	1-back	4580.212261	Steps:1 KeyPress:True Matched:False	0	1	true	false	Wrong	false	n/a	n-backMarkers
297.150879	0.012000	dropped_samples	4580.600476	Dropped 3 samples	n/a	n/a	n/a	n/a	n/a	n/a	3	UoHDataOffsetStream
297.173647	0.012000	dropped_samples	4580.623244	Dropped 3 samples	n/a	n/a	n/a	n/a	n/a	n/a	3	UoHDataOffsetStream
298.464161	0.000000	1-back	4581.913758	Steps:1 KeyPress:False Matched:True	0	1	false	true	Wrong	false	n/a	n-backMarkers
300.165170	0.000000	1-back	4583.614766	Steps:1 KeyPress:False Matched:True	0	1	false	true	Wrong	false	n/a	n-backMarkers
300.532960	0.008000	dropped_samples	4583.982557	Dropped 2 samples	n/a	n/a	n/a	n/a	n/a	n/a	2	UoHDataOffsetStream
301.035880	0.008000	dropped_samples	4584.485476	Dropped 2 samples	n/a	n/a	n/a	n/a	n/a	n/a	2	UoHDataOffsetStream
301.865407	0.000000	1-back	4585.315003	Steps:1 KeyPress:False Matched:False	1	1	false	false	Correct	false	n/a	n-backMarkers
303.566232	0.000000	1-back	4587.015828	Steps:1 KeyPress:False Matched:False	1	1	false	false	Correct	false	n/a	n-backMarkers
303.799565	0.012000	dropped_samples	4587.249161	Dropped 3 samples	n/a	n/a	n/a	n/a	n/a	n/a	3	UoHDataOffsetStream
304.014389	0.004000	dropped_samples	4587.463985	Dropped 1 samples	n/a	n/a	n/a	n/a	n/a	n/a	1	UoHDataOffsetStream
305.267867	0.000000	1-back	4588.717463	Steps:1 KeyPress:True Matched:False	0	1	true	false	Wrong	false	n/a	n-backMarkers
305.908948	0.004000	dropped_samples	4589.358544	Dropped 1 samples	n/a	n/a	n/a	n/a	n/a	n/a	1	UoHDataOffsetStream
306.331445	0.004000	dropped_samples	4589.781041	Dropped 1 samples	n/a	n/a	n/a	n/a	n/a	n/a	1	UoHDataOffsetStream
306.699956	0.012000	dropped_samples	4590.149552	Dropped 3 samples	n/a	n/a	n/a	n/a	n/a	n/a	3	UoHDataOffsetStream
306.969161	0.000000	1-back	4590.418758	Steps:1 KeyPress:False Matched:True	0	1	false	true	Wrong	false	n/a	n-backMarkers
307.422822	0.012000	dropped_samples	4590.872418	Dropped 3 samples	n/a	n/a	n/a	n/a	n/a	n/a	3	UoHDataOffsetStream
307.657012	0.008000	dropped_samples	4591.106608	Dropped 2 samples	n/a	n/a	n/a	n/a	n/a	n/a	2	UoHDataOffsetStream
308.550758	0.012000	dropped_samples	4592.000355	Dropped 3 samples	n/a	n/a	n/a	n/a	n/a	n/a	3	UoHDataOffsetStream
308.670358	0.000000	1-back	4592.119954	Steps:1 KeyPress:False Matched:False	1	1	false	false	Correct	false	n/a	n-backMarkers
310.370387	0.000000	1-back	4593.819983	Steps:1 KeyPress:True Matched:False	0	1	true	false	Wrong	false	n/a	n-backMarkers
310.591539	0.012000	dropped_samples	4594.041135	Dropped 3 samples	n/a	n/a	n/a	n/a	n/a	n/a	3	UoHDataOffsetStream
310.996843	0.004000	dropped_samples	4594.446439	Dropped 1 samples	n/a	n/a	n/a	n/a	n/a	n/a	1	UoHDataOffsetStream
311.260498	0.004000	dropped_samples	4594.710094	Dropped 1 samples	n/a	n/a	n/a	n/a	n/a	n/a	1	UoHDataOffsetStream
312.072364	0.000000	1-back	4595.521960	Steps:1 KeyPress:False Matched:False	1	1	false	false	Correct	false	n/a	n-backMarkers
313.773350	0.000000	1-back	4597.222947	Steps:1 KeyPress:True Matched:False	0	1	true	false	Wrong	false	n/a	n-backMarkers
315.471710	0.004000	dropped_samples	4598.921306	Dropped 1 samples	n/a	n/a	n/a	n/a	n/a	n/a	1	UoHDataOffsetStream
315.474376	0.000000	1-back	4598.923972	Steps:1 KeyPress:False Matched:False	1	1	false	false	Correct	false	n/a	n-backMarkers
315.566093	0.012000	dropped_samples	4599.015689	Dropped 3 samples	n/a	n/a	n/a	n/a	n/a	n/a	3	UoHDataOffsetStream
315.567493	0.012000	dropped_samples	4599.017090	Dropped 3 samples	n/a	n/a	n/a	n/a	n/a	n/a	3	UoHDataOffsetStream
315.606230	0.028000	dropped_samples	4599.055826	Dropped 7 samples	n/a	n/a	n/a	n/a	n/a	n/a	7	UoHDataOffsetStream
316.109135	0.012000	dropped_samples	4599.558731	Dropped 3 samples	n/a	n/a	n/a	n/a	n/a	n/a	3	UoHDataOffsetStream
317.175513	0.000000	1-back	4600.625109	Steps:1 KeyPress:True Matched:False	0	1	true	false	Wrong	false	n/a	n-backMarkers
318.053629	0.004000	dropped_samples	4601.503225	Dropped 1 samples	n/a	n/a	n/a	n/a	n/a	n/a	1	UoHDataOffsetStream
318.579834	0.012000	dropped_samples	4602.029431	Dropped 3 samples	n/a	n/a	n/a	n/a	n/a	n/a	3	UoHDataOffsetStream
318.875875	0.000000	1-back	4602.325472	Steps:1 KeyPress:False Matched:False	1	1	false	false	Correct	false	n/a	n-backMarkers
319.995845	0.004000	dropped_samples	4603.445441	Dropped 1 samples	n/a	n/a	n/a	n/a	n/a	n/a	1	UoHDataOffsetStream
320.575986	0.000000	1-back	4604.025583	Steps:1 KeyPress:True Matched:False	0	1	true	false	Wrong	false	n/a	n-backMarkers
321.822012	0.012000	dropped_samples	4605.271609	Dropped 3 samples	n/a	n/a	n/a	n/a	n/a	n/a	3	UoHDataOffsetStream
322.276680	0.000000	1-back	4605.726276	Steps:1 KeyPress:False Matched:True	0	1	false	true	Wrong	false	n/a	n-backMarkers
323.955809	0.012000	dropped_samples	4607.405405	Dropped 3 samples	n/a	n/a	n/a	n/a	n/a	n/a	3	UoHDataOffsetStream
323.977334	0.000000	1-back	4607.426930	Steps:1 KeyPress:False Matched:False	1	1	false	false	Correct	false	n/a	n-backMarkers
325.678257	0.000000	1-back	4609.127853	Steps:1 KeyPress:True Matched:False	0	1	true	false	Wrong	false	n/a	n-backMarkers
327.379572	0.000000	1-back	4610.829169	Steps:1 KeyPress:False Matched:True	0	1	false	true	Wrong	false	n/a	n-backMarkers
328.062282	0.008000	dropped_samples	4611.511878	Dropped 2 samples	n/a	n/a	n/a	n/a	n/a	n/a	2	UoHDataOffsetStream
329.080446	0.000000	1-back	4612.530043	Steps:1 KeyPress:False Matched:False	1	1	false	false	Correct	false	n/a	n-backMarkers
329.741961	0.012000	dropped_samples	4613.191557	Dropped 3 samples	n/a	n/a	n/a	n/a	n/a	n/a	3	UoHDataOffsetStream
329.883543	0.008000	dropped_samples	4613.333139	Dropped 2 samples	n/a	n/a	n/a	n/a	n/a	n/a	2	UoHDataOffsetStream
329.981247	0.004000	dropped_samples	4613.430843	Dropped 1 samples	n/a	n/a	n/a	n/a	n/a	n/a	1	UoHDataOffsetStream
330.781002	0.000000	1-back	4614.230598	Steps:1 KeyPress:False Matched:False	1	1	false	false	Correct	false	n/a	n-backMarkers
331.109208	0.004000	dropped_samples	4614.558805	Dropped 1 samples	n/a	n/a	n/a	n/a	n/a	n/a	1	UoHDataOffsetStream
332.481224	0.000000	1-back	4615.930821	Steps:1 KeyPress:False Matched:False	1	1	false	false	Correct	false	n/a	n-backMarkers
333.340603	0.008000	dropped_samples	4616.790199	Dropped 2 samples	n/a	n/a	n/a	n/a	n/a	n/a	2	UoHDataOffsetStream
333.535913	0.012000	dropped_samples	4616.985509	Dropped 3 samples	n/a	n/a	n/a	n/a	n/a	n/a	3	UoHDataOffsetStream
334.182282	0.000000	1-back	4617.631878	Steps:1 KeyPress:True Matched:False	0	1	true	false	Wrong	false	n/a	n-backMarkers
334.976329	0.004000	dropped_samples	4618.425926	Dropped 1 samples	n/a	n/a	n/a	n/a	n/a	n/a	1	UoHDataOffsetStream
335.829453	0.008000	dropped_samples	4619.279049	Dropped 2 samples	n/a	n/a	n/a	n/a	n/a	n/a	2	UoHDataOffsetStream
335.860220	0.004000	dropped_samples	4619.309816	Dropped 1 samples	n/a	n/a	n/a	n/a	n/a	n/a	1	UoHDataOffsetStream
335.883255	0.000000	1-back	4619.332851	Steps:1 KeyPress:False Matched:False	1	1	false	false	Correct	false	n/a	n-backMarkers
337.083759	0.012000	dropped_samples	4620.533356	Dropped 3 samples	n/a	n/a	n/a	n/a	n/a	n/a	3	UoHDataOffsetStream
337.110148	0.012000	dropped_samples	4620.559744	Dropped 3 samples	n/a	n/a	n/a	n/a	n/a	n/a	3	UoHDataOffsetStream
337.232199	0.004000	dropped_samples	4620.681796	Dropped 1 samples	n/a	n/a	n/a	n/a	n/a	n/a	1	UoHDataOffsetStream
337.583363	0.000000	1-back	4621.032960	Steps:1 KeyPress:True Matched:False	0	1	true	false	Wrong	false	n/a	n-backMarkers
338.379650	0.004000	dropped_samples	4621.829246	Dropped 1 samples	n/a	n/a	n/a	n/a	n/a	n/a	1	UoHDataOffsetStream
338.526204	0.008000	dropped_samples	4621.975800	Dropped 2 samples	n/a	n/a	n/a	n/a	n/a	n/a	2	UoHDataOffsetStream
339.030611	0.012000	dropped_samples	4622.480208	Dropped 3 samples	n/a	n/a	n/a	n/a	n/a	n/a	3	UoHDataOffsetStream
339.077941	0.008000	dropped_samples	4622.527537	Dropped 2 samples	n/a	n/a	n/a	n/a	n/a	n/a	2	UoHDataOffsetStream
339.284382	0.000000	1-back	4622.733979	Steps:1 KeyPress:False Matched:True	0	1	false	true	Wrong	false	n/a	n-backMarkers
339.366064	0.012000	dropped_samples	4622.815660	Dropped 3 samples	n/a	n/a	n/a	n/a	n/a	n/a	3	UoHDataOffsetStream
339.630943	0.004000	dropped_samples	4623.080539	Dropped 1 samples	n/a	n/a	n/a	n/a	n/a	n/a	1	UoHDataOffsetStream
339.678467	0.012000	dropped_samples	4623.128063	Dropped 3 samples	n/a	n/a	n/a	n/a	n/a	n/a	3	UoHDataOffsetStream
340.153663	0.012000	dropped_samples	4623.603259	Dropped 3 samples	n/a	n/a	n/a	n/a	n/a	n/a	3	UoHDataOffsetStream
340.205966	0.008000	dropped_samples	4623.655562	Dropped 2 samples	n/a	n/a	n/a	n/a	n/a	n/a	2	UoHDataOffsetStream
340.396320	0.012000	dropped_samples	4623.845916	Dropped 3 samples	n/a	n/a	n/a	n/a	n/a	n/a	3	UoHDataOffsetStream
340.985215	0.000000	1-back	4624.434812	Steps:1 KeyPress:False Matched:False	1	1	false	false	Correct	false	n/a	n-backMarkers
341.211716	0.008000	dropped_samples	4624.661313	Dropped 2 samples	n/a	n/a	n/a	n/a	n/a	n/a	2	UoHDataOffsetStream
342.535009	0.004000	dropped_samples	4625.984606	Dropped 1 samples	n/a	n/a	n/a	n/a	n/a	n/a	1	UoHDataOffsetStream
342.685326	0.000000	1-back	4626.134923	Steps:1 KeyPress:True Matched:False	0	1	true	false	Wrong	false	n/a	n-backMarkers
343.135515	0.008000	dropped_samples	4626.585111	Dropped 2 samples	n/a	n/a	n/a	n/a	n/a	n/a	2	UoHDataOffsetStream
344.386248	0.000000	1-back	4627.835844	Steps:1 KeyPress:False Matched:False	1	1	false	false	Correct	false	n/a	n-backMarkers
346.087518	0.000000	1-back	4629.537114	Steps:1 KeyPress:True Matched:False	0	1	true	false	Wrong	false	n/a	n-backMarkers
346.612083	0.008000	dropped_samples	4630.061679	Dropped 2 samples	n/a	n/a	n/a	n/a	n/a	n/a	2	UoHDataOffsetStream
347.787959	0.000000	1-back	4631.237555	Steps:1 KeyPress:False Matched:False	1	1	false	false	Correct	false	n/a	n-backMarkers
349.489180	0.000000	1-back	4632.938776	Steps:1 KeyPress:True Matched:False	0	1	true	false	Wrong	false	n/a	n-backMarkers
351.190237	0.000000	1-back	4634.639833	Steps:1 KeyPress:False Matched:False	1	1	false	false	Correct	false	n/a	n-backMarkers
351.411860	0.004000	dropped_samples	4634.861456	Dropped 1 samples	n/a	n/a	n/a	n/a	n/a	n/a	1	UoHDataOffsetStream
352.891264	0.000000	1-back	4636.340860	Steps:1 KeyPress:True Matched:False	0	1	true	false	Wrong	false	n/a	n-backMarkers
354.593069	0.000000	1-back	4638.042665	Steps:1 KeyPress:False Matched:True	0	1	false	true	Wrong	false	n/a	n-backMarkers
354.917735	0.012000	dropped_samples	4638.367331	Dropped 3 samples	n/a	n/a	n/a	n/a	n/a	n/a	3	UoHDataOffsetStream
355.469559	0.008000	dropped_samples	4638.919155	Dropped 2 samples	n/a	n/a	n/a	n/a	n/a	n/a	2	UoHDataOffsetStream
356.294141	0.000000	1-back	4639.743737	Steps:1 KeyPress:False Matched:True	0	1	false	true	Wrong	false	n/a	n-backMarkers
357.995272	0.000000	1-back	4641.444869	Steps:1 KeyPress:False Matched:False	1	1	false	false	Correct	false	n/a	n-backMarkers
359.696495	0.000000	1-back	4643.146091	Steps:1 KeyPress:True Matched:False	0	1	true	false	Wrong	false	n/a	n-backMarkers
360.342558	0.004000	dropped_samples	4643.792154	Dropped 1 samples	n/a	n/a	n/a	n/a	n/a	n/a	1	UoHDataOffsetStream
361.398213	0.000000	1-back	4644.847809	Steps:1 KeyPress:False Matched:False	1	1	false	false	Correct	false	n/a	n-backMarkers
361.831768	0.012000	dropped_samples	4645.281364	Dropped 3 samples	n/a	n/a	n/a	n/a	n/a	n/a	3	UoHDataOffsetStream
362.451900	0.012000	dropped_samples	4645.901496	Dropped 3 samples	n/a	n/a	n/a	n/a	n/a	n/a	3	UoHDataOffsetStream
362.959761	0.008000	dropped_samples	4646.409358	Dropped 2 samples	n/a	n/a	n/a	n/a	n/a	n/a	2	UoHDataOffsetStream
363.099260	0.000000	1-back	4646.548857	Steps:1 KeyPress:True Matched:False	0	1	true	false	Wrong	false	n/a	n-backMarkers
363.111084	0.004000	dropped_samples	4646.560680	Dropped 1 samples	n/a	n/a	n/a	n/a	n/a	n/a	1	UoHDataOffsetStream
364.800272	0.000000	1-back	4648.249869	Steps:1 KeyPress:False Matched:False	1	1	false	false	Correct	false	n/a	n-backMarkers
366.501233	0.000000	1-back	4649.950829	Steps:1 KeyPress:True Matched:False	0	1	true	false	Wrong	false	n/a	n-backMarkers
368.203306	0.000000	1-back	4651.652902	Steps:1 KeyPress:False Matched:False	1	1	false	false	Correct	false	n/a	n-backMarkers
368.404156	0.004000	dropped_samples	4651.853753	Dropped 1 samples	n/a	n/a	n/a	n/a	n/a	n/a	1	UoHDataOffsetStream
368.526190	0.004000	dropped_samples	4651.975786	Dropped 1 samples	n/a	n/a	n/a	n/a	n/a	n/a	1	UoHDataOffsetStream
369.904323	0.000000	1-back	4653.353919	Steps:1 KeyPress:True Matched:False	0	1	true	false	Wrong	false	n/a	n-backMarkers
370.469769	0.004000	dropped_samples	4653.919365	Dropped 1 samples	n/a	n/a	n/a	n/a	n/a	n/a	1	UoHDataOffsetStream
371.604759	0.000000	1-back	4655.054355	Steps:1 KeyPress:False Matched:False	1	1	false	false	Correct	false	n/a	n-backMarkers
372.007607	0.012000	dropped_samples	4655.457203	Dropped 3 samples	n/a	n/a	n/a	n/a	n/a	n/a	3	UoHDataOffsetStream
373.305879	0.000000	1-back	4656.755475	Steps:1 KeyPress:True Matched:False	0	1	true	false	Wrong	false	n/a	n-backMarkers
375.007327	0.000000	1-back	4658.456924	Steps:1 KeyPress:False Matched:False	1	1	false	false	Correct	false	n/a	n-backMarkers
375.679509	0.012000	dropped_samples	4659.129105	Dropped 3 samples	n/a	n/a	n/a	n/a	n/a	n/a	3	UoHDataOffsetStream
376.592654	0.012000	dropped_samples	4660.042250	Dropped 3 samples	n/a	n/a	n/a	n/a	n/a	n/a	3	UoHDataOffsetStream
376.708258	0.000000	1-back	4660.157855	Steps:1 KeyPress:True Matched:False	0	1	true	false	Wrong	false	n/a	n-backMarkers
378.408715	0.000000	1-back	4661.858312	Steps:1 KeyPress:False Matched:True	0	1	false	true	Wrong	false	n/a	n-backMarkers
379.136536	0.012000	dropped_samples	4662.586133	Dropped 3 samples	n/a	n/a	n/a	n/a	n/a	n/a	3	UoHDataOffsetStream
380.109125	0.000000	1-back	4663.558721	Steps:1 KeyPress:True Matched:True	1	1	true	true	Correct	false	n/a	n-backMarkers
380.528372	0.004000	dropped_samples	4663.977969	Dropped 1 samples	n/a	n/a	n/a	n/a	n/a	n/a	1	UoHDataOffsetStream
381.811089	0.000000	1-back	4665.260685	Steps:1 KeyPress:False Matched:True	0	1	false	true	Wrong	false	n/a	n-backMarkers
383.512066	0.000000	1-back	4666.961662	Steps:1 KeyPress:False Matched:False	1	1	false	false	Correct	false	n/a	n-backMarkers
385.212079	0.000000	1-back	4668.661676	Steps:1 KeyPress:True Matched:False	0	1	true	false	Wrong	false	n/a	n-backMarkers
386.605390	0.012000	dropped_samples	4670.054986	Dropped 3 samples	n/a	n/a	n/a	n/a	n/a	n/a	3	UoHDataOffsetStream
386.646305	0.008000	dropped_samples	4670.095902	Dropped 2 samples	n/a	n/a	n/a	n/a	n/a	n/a	2	UoHDataOffsetStream
386.913875	0.000000	1-back	4670.363471	Steps:1 KeyPress:False Matched:False	1	1	false	false	Correct	false	n/a	n-backMarkers
387.222548	0.012000	dropped_samples	4670.672144	Dropped 3 samples	n/a	n/a	n/a	n/a	n/a	n/a	3	UoHDataOffsetStream
387.388564	0.012000	dropped_samples	4670.838160	Dropped 3 samples	n/a	n/a	n/a	n/a	n/a	n/a	3	UoHDataOffsetStream
388.111126	0.008000	dropped_samples	4671.560722	Dropped 2 samples	n/a	n/a	n/a	n/a	n/a	n/a	2	UoHDataOffsetStream
388.431257	0.008000	dropped_samples	4671.880853	Dropped 2 samples	n/a	n/a	n/a	n/a	n/a	n/a	2	UoHDataOffsetStream
388.615124	0.000000	1-back	4672.064720	Steps:1 KeyPress:True Matched:False	0	1	true	false	Wrong	false	n/a	n-backMarkers
390.315901	0.000000	1-back	4673.765497	Steps:1 KeyPress:False Matched:False	1	1	false	false	Correct	false	n/a	n-backMarkers
390.679510	0.004000	dropped_samples	4674.129107	Dropped 1 samples	n/a	n/a	n/a	n/a	n/a	n/a	1	UoHDataOffsetStream
392.015909	0.000000	1-back	4675.465506	Steps:1 KeyPress:True Matched:False	0	1	true	false	Wrong	false	n/a	n-backMarkers
393.560428	0.008000	dropped_samples	4677.010024	Dropped 2 samples	n/a	n/a	n/a	n/a	n/a	n/a	2	UoHDataOffsetStream
393.716075	0.000000	1-back	4677.165671	Steps:1 KeyPress:False Matched:True	0	1	false	true	Wrong	false	n/a	n-backMarkers
395.416016	0.000000	1-back	4678.865612	Steps:1 KeyPress:False Matched:False	1	1	false	false	Correct	false	n/a	n-backMarkers
397.117018	0.000000	1-back	4680.566614	Steps:1 KeyPress:True Matched:False	0	1	true	false	Wrong	false	n/a	n-backMarkers
398.818010	0.000000	1-back	4682.267606	Steps:1 KeyPress:False Matched:True	0	1	false	true	Wrong	false	n/a	n-backMarkers
400.518149	0.000000	1-back	4683.967745	Steps:1 KeyPress:False Matched:True	0	1	false	true	Wrong	false	n/a	n-backMarkers
402.219539	0.000000	1-back	4685.669135	Steps:1 KeyPress:False Matched:False	1	1	false	false	Correct	false	n/a	n-backMarkers
402.583887	0.012000	dropped_samples	4686.033483	Dropped 3 samples	n/a	n/a	n/a	n/a	n/a	n/a	3	UoHDataOffsetStream
403.383553	0.008000	dropped_samples	4686.833150	Dropped 2 samples	n/a	n/a	n/a	n/a	n/a	n/a	2	UoHDataOffsetStream
403.921095	0.000000	1-back	4687.370691	Steps:1 KeyPress:True Matched:False	0	1	true	false	Wrong	false	n/a	n-backMarkers
404.332710	0.012000	dropped_samples	4687.782306	Dropped 3 samples	n/a	n/a	n/a	n/a	n/a	n/a	3	UoHDataOffsetStream
404.575983	0.012000	dropped_samples	4688.025579	Dropped 3 samples	n/a	n/a	n/a	n/a	n/a	n/a	3	UoHDataOffsetStream
404.981247	0.012000	dropped_samples	4688.430844	Dropped 3 samples	n/a	n/a	n/a	n/a	n/a	n/a	3	UoHDataOffsetStream
405.127823	0.004000	dropped_samples	4688.577419	Dropped 1 samples	n/a	n/a	n/a	n/a	n/a	n/a	1	UoHDataOffsetStream
405.622108	0.000000	1-back	4689.071705	Steps:1 KeyPress:False Matched:False	1	1	false	false	Correct	false	n/a	n-backMarkers
407.322844	0.000000	1-back	4690.772440	Steps:1 KeyPress:True Matched:False	0	1	true	false	Wrong	false	n/a	n-backMarkers
408.560375	0.012000	dropped_samples	4692.009971	Dropped 3 samples	n/a	n/a	n/a	n/a	n/a	n/a	3	UoHDataOffsetStream
408.775229	0.008000	dropped_samples	4692.224825	Dropped 2 samples	n/a	n/a	n/a	n/a	n/a	n/a	2	UoHDataOffsetStream
409.023309	0.000000	1-back	4692.472905	Steps:1 KeyPress:False Matched:True	0	1	false	true	Wrong	false	n/a	n-backMarkers
409.038948	0.004000	dropped_samples	4692.488544	Dropped 1 samples	n/a	n/a	n/a	n/a	n/a	n/a	1	UoHDataOffsetStream
409.935488	0.008000	dropped_samples	4693.385084	Dropped 2 samples	n/a	n/a	n/a	n/a	n/a	n/a	2	UoHDataOffsetStream
410.724990	0.000000	1-back	4694.174586	Steps:1 KeyPress:False Matched:False	1	1	false	false	Correct	false	n/a	n-backMarkers
411.416817	0.012000	dropped_samples	4694.866414	Dropped 3 samples	n/a	n/a	n/a	n/a	n/a	n/a	3	UoHDataOffsetStream
412.425039	0.000000	1-back	4695.874636	Steps:1 KeyPress:True Matched:False	0	1	true	false	Wrong	false	n/a	n-backMarkers
412.661993	0.008000	dropped_samples	4696.111589	Dropped 2 samples	n/a	n/a	n/a	n/a	n/a	n/a	2	UoHDataOffsetStream
412.915033	0.004000	dropped_samples	4696.364629	Dropped 1 samples	n/a	n/a	n/a	n/a	n/a	n/a	1	UoHDataOffsetStream
412.950040	0.004000	dropped_samples	4696.399636	Dropped 1 samples	n/a	n/a	n/a	n/a	n/a	n/a	1	UoHDataOffsetStream
413.985206	0.008000	dropped_samples	4697.434802	Dropped 2 samples	n/a	n/a	n/a	n/a	n/a	n/a	2	UoHDataOffsetStream
414.125186	0.000000	1-back	4697.574782	Steps:1 KeyPress:False Matched:True	0	1	false	true	Wrong	false	n/a	n-backMarkers
415.157068	0.004000	dropped_samples	4698.606664	Dropped 1 samples	n/a	n/a	n/a	n/a	n/a	n/a	1	UoHDataOffsetStream
415.827040	0.000000	1-back	4699.276636	Steps:1 KeyPress:False Matched:True	0	1	false	true	Wrong	false	n/a	n-backMarkers
416.167779	0.004000	dropped_samples	4699.617376	Dropped 1 samples	n/a	n/a	n/a	n/a	n/a	n/a	1	UoHDataOffsetStream
416.309422	0.004000	dropped_samples	4699.759018	Dropped 1 samples	n/a	n/a	n/a	n/a	n/a	n/a	1	UoHDataOffsetStream
417.528958	0.000000	1-back	4700.978554	Steps:1 KeyPress:True Matched:False	0	1	true	false	Wrong	false	n/a	n-backMarkers
419.229129	0.000000	1-back	4702.678725	Steps:1 KeyPress:True Matched:True	1	1	true	true	Correct	false	n/a	n-backMarkers
420.929941	0.000000	1-back	4704.379537	Steps:1 KeyPress:False Matched:False	1	1	false	false	Correct	false	n/a	n-backMarkers
421.783060	0.008000	dropped_samples	4705.232656	Dropped 2 samples	n/a	n/a	n/a	n/a	n/a	n/a	2	UoHDataOffsetStream
422.408095	0.012000	dropped_samples	4705.857691	Dropped 3 samples	n/a	n/a	n/a	n/a	n/a	n/a	3	UoHDataOffsetStream
422.631157	0.000000	1-back	4706.080753	Steps:1 KeyPress:True Matched:False	0	1	true	false	Wrong	false	n/a	n-backMarkers
423.247864	0.004000	dropped_samples	4706.697460	Dropped 1 samples	n/a	n/a	n/a	n/a	n/a	n/a	1	UoHDataOffsetStream
424.332770	0.000000	1-back	4707.782366	Steps:1 KeyPress:False Matched:False	1	1	false	false	Correct	false	n/a	n-backMarkers
424.737155	0.008000	dropped_samples	4708.186751	Dropped 2 samples	n/a	n/a	n/a	n/a	n/a	n/a	2	UoHDataOffsetStream
426.033883	0.000000	1-back	4709.483479	Steps:1 KeyPress:True Matched:False	0	1	true	false	Wrong	false	n/a	n-backMarkers
427.734856	0.000000	1-back	4711.184453	Steps:1 KeyPress:False Matched:True	0	1	false	true	Wrong	false	n/a	n-backMarkers
429.248864	0.004000	dropped_samples	4712.698460	Dropped 1 samples	n/a	n/a	n/a	n/a	n/a	n/a	1	UoHDataOffsetStream
429.317209	0.004000	dropped_samples	4712.766805	Dropped 1 samples	n/a	n/a	n/a	n/a	n/a	n/a	1	UoHDataOffsetStream
429.435105	0.000000	1-back	4712.884701	Steps:1 KeyPress:False Matched:True	0	1	false	true	Wrong	false	n/a	n-backMarkers
429.678576	0.004000	dropped_samples	4713.128172	Dropped 1 samples	n/a	n/a	n/a	n/a	n/a	n/a	1	UoHDataOffsetStream
429.776241	0.004000	dropped_samples	4713.225837	Dropped 1 samples	n/a	n/a	n/a	n/a	n/a	n/a	1	UoHDataOffsetStream
431.136842	0.000000	1-back	4714.586439	Steps:1 KeyPress:False Matched:False	1	1	false	false	Correct	false	n/a	n-backMarkers
431.493060	0.012000	dropped_samples	4714.942656	Dropped 3 samples	n/a	n/a	n/a	n/a	n/a	n/a	3	UoHDataOffsetStream
431.529220	0.012000	dropped_samples	4714.978816	Dropped 3 samples	n/a	n/a	n/a	n/a	n/a	n/a	3	UoHDataOffsetStream
432.837842	0.000000	1-back	4716.287438	Steps:1 KeyPress:True Matched:False	0	1	true	false	Wrong	false	n/a	n-backMarkers
434.527195	0.012000	dropped_samples	4717.976792	Dropped 3 samples	n/a	n/a	n/a	n/a	n/a	n/a	3	UoHDataOffsetStream
434.538358	0.000000	1-back	4717.987954	Steps:1 KeyPress:False Matched:False	1	1	false	false	Correct	false	n/a	n-backMarkers
436.239951	0.000000	1-back	4719.689548	Steps:1 KeyPress:True Matched:False	0	1	true	false	Wrong	false	n/a	n-backMarkers
437.940113	0.000000	1-back	4721.389709	Steps:1 KeyPress:False Matched:False	1	1	false	false	Correct	false	n/a	n-backMarkers
439.204944	0.004000	dropped_samples	4722.654540	Dropped 1 samples	n/a	n/a	n/a	n/a	n/a	n/a	1	UoHDataOffsetStream
439.642376	0.000000	1-back	4723.091972	Steps:1 KeyPress:True Matched:False	0	1	true	false	Wrong	false	n/a	n-backMarkers
439.805606	0.004000	dropped_samples	4723.255203	Dropped 1 samples	n/a	n/a	n/a	n/a	n/a	n/a	1	UoHDataOffsetStream
440.142506	0.012000	dropped_samples	4723.592102	Dropped 3 samples	n/a	n/a	n/a	n/a	n/a	n/a	3	UoHDataOffsetStream
441.342483	0.000000	1-back	4724.792079	Steps:1 KeyPress:False Matched:False	1	1	false	false	Correct	false	n/a	n-backMarkers
442.784093	0.004000	dropped_samples	4726.233689	Dropped 1 samples	n/a	n/a	n/a	n/a	n/a	n/a	1	UoHDataOffsetStream
443.043510	0.000000	1-back	4726.493107	Steps:1 KeyPress:True Matched:False	0	1	true	false	Wrong	false	n/a	n-backMarkers
444.727373	0.008000	dropped_samples	4728.176970	Dropped 2 samples	n/a	n/a	n/a	n/a	n/a	n/a	2	UoHDataOffsetStream
444.743841	0.000000	1-back	4728.193438	Steps:1 KeyPress:False Matched:True	0	1	false	true	Wrong	false	n/a	n-backMarkers
445.591652	0.008000	dropped_samples	4729.041248	Dropped 2 samples	n/a	n/a	n/a	n/a	n/a	n/a	2	UoHDataOffsetStream
447.608249	0.012000	dropped_samples	4731.057846	Dropped 3 samples	n/a	n/a	n/a	n/a	n/a	n/a	3	UoHDataOffsetStream
448.252803	0.004000	dropped_samples	4731.702399	Dropped 1 samples	n/a	n/a	n/a	n/a	n/a	n/a	1	UoHDataOffsetStream
449.049050	0.004000	dropped_samples	4732.498647	Dropped 1 samples	n/a	n/a	n/a	n/a	n/a	n/a	1	UoHDataOffsetStream
449.502860	0.004000	dropped_samples	4732.952456	Dropped 1 samples	n/a	n/a	n/a	n/a	n/a	n/a	1	UoHDataOffsetStream
450.509600	0.004000	dropped_samples	4733.959196	Dropped 1 samples	n/a	n/a	n/a	n/a	n/a	n/a	1	UoHDataOffsetStream
453.442527	0.000000	2-back	4736.892124	Steps:2 KeyPress:False Matched:False	1	2	false	false	Correct	false	n/a	n-backMarkers
455.143710	0.000000	2-back	4738.593307	Steps:2 KeyPress:False Matched:False	1	2	false	false	Correct	false	n/a	n-backMarkers
456.843836	0.000000	2-back	4740.293433	Steps:2 KeyPress:False Matched:False	1	2	false	false	Correct	false	n/a	n-backMarkers
456.895393	0.004000	dropped_samples	4740.344990	Dropped 1 samples	n/a	n/a	n/a	n/a	n/a	n/a	1	UoHDataOffsetStream
458.544814	0.000000	2-back	4741.994410	Steps:2 KeyPress:False Matched:False	1	2	false	false	Correct	false	n/a	n-backMarkers
458.623910	0.012000	dropped_samples	4742.073506	Dropped 3 samples	n/a	n/a	n/a	n/a	n/a	n/a	3	UoHDataOffsetStream
458.985184	0.004000	dropped_samples	4742.434780	Dropped 1 samples	n/a	n/a	n/a	n/a	n/a	n/a	1	UoHDataOffsetStream
460.245971	0.000000	2-back	4743.695567	Steps:2 KeyPress:True Matched:False	0	2	true	false	Wrong	false	n/a	n-backMarkers
461.946989	0.000000	2-back	4745.396586	Steps:2 KeyPress:False Matched:False	1	2	false	false	Correct	false	n/a	n-backMarkers
463.301646	0.012000	dropped_samples	4746.751242	Dropped 3 samples	n/a	n/a	n/a	n/a	n/a	n/a	3	UoHDataOffsetStream
463.648844	0.000000	2-back	4747.098440	Steps:2 KeyPress:False Matched:False	1	2	false	false	Correct	false	n/a	n-backMarkers
463.853423	0.012000	dropped_samples	4747.303019	Dropped 3 samples	n/a	n/a	n/a	n/a	n/a	n/a	3	UoHDataOffsetStream
464.478421	0.008000	dropped_samples	4747.928017	Dropped 2 samples	n/a	n/a	n/a	n/a	n/a	n/a	2	UoHDataOffsetStream
464.704716	0.004000	dropped_samples	4748.154312	Dropped 1 samples	n/a	n/a	n/a	n/a	n/a	n/a	1	UoHDataOffsetStream
465.005796	0.004000	dropped_samples	4748.455393	Dropped 1 samples	n/a	n/a	n/a	n/a	n/a	n/a	1	UoHDataOffsetStream
465.349846	0.000000	2-back	4748.799442	Steps:2 KeyPress:True Matched:False	0	2	true	false	Wrong	false	n/a	n-backMarkers
466.280147	0.004000	dropped_samples	4749.729743	Dropped 1 samples	n/a	n/a	n/a	n/a	n/a	n/a	1	UoHDataOffsetStream
466.421791	0.004000	dropped_samples	4749.871388	Dropped 1 samples	n/a	n/a	n/a	n/a	n/a	n/a	1	UoHDataOffsetStream
467.050651	0.000000	2-back	4750.500247	Steps:2 KeyPress:False Matched:True	0	2	false	true	Wrong	false	n/a	n-backMarkers
467.549770	0.008000	dropped_samples	4750.999366	Dropped 2 samples	n/a	n/a	n/a	n/a	n/a	n/a	2	UoHDataOffsetStream
467.984377	0.004000	dropped_samples	4751.433974	Dropped 1 samples	n/a	n/a	n/a	n/a	n/a	n/a	1	UoHDataOffsetStream
468.752036	0.000000	2-back	4752.201633	Steps:2 KeyPress:False Matched:False	1	2	false	false	Correct	false	n/a	n-backMarkers
470.452742	0.000000	2-back	4753.902338	Steps:2 KeyPress:False Matched:False	1	2	false	false	Correct	false	n/a	n-backMarkers
470.694604	0.008000	dropped_samples	4754.144200	Dropped 2 samples	n/a	n/a	n/a	n/a	n/a	n/a	2	UoHDataOffsetStream
471.490210	0.004000	dropped_samples	4754.939806	Dropped 1 samples	n/a	n/a	n/a	n/a	n/a	n/a	1	UoHDataOffsetStream
471.845947	0.008000	dropped_samples	4755.295544	Dropped 2 samples	n/a	n/a	n/a	n/a	n/a	n/a	2	UoHDataOffsetStream
471.895401	0.008000	dropped_samples	4755.344997	Dropped 2 samples	n/a	n/a	n/a	n/a	n/a	n/a	2	UoHDataOffsetStream
472.152995	0.000000	2-back	4755.602591	Steps:2 KeyPress:True Matched:False	0	2	true	false	Wrong	false	n/a	n-backMarkers
473.853992	0.000000	2-back	4757.303589	Steps:2 KeyPress:False Matched:False	1	2	false	false	Correct	false	n/a	n-backMarkers
475.554919	0.000000	2-back	4759.004515	Steps:2 KeyPress:False Matched:False	1	2	false	false	Correct	false	n/a	n-backMarkers
476.382700	0.008000	dropped_samples	4759.832296	Dropped 2 samples	n/a	n/a	n/a	n/a	n/a	n/a	2	UoHDataOffsetStream
477.255726	0.000000	2-back	4760.705323	Steps:2 KeyPress:True Matched:False	0	2	true	false	Wrong	false	n/a	n-backMarkers
478.956976	0.000000	2-back	4762.406572	Steps:2 KeyPress:False Matched:False	1	2	false	false	Correct	false	n/a	n-backMarkers
480.657822	0.000000	2-back	4764.107418	Steps:2 KeyPress:False Matched:False	1	2	false	false	Correct	false	n/a	n-backMarkers
480.967660	0.008000	dropped_samples	4764.417256	Dropped 2 samples	n/a	n/a	n/a	n/a	n/a	n/a	2	UoHDataOffsetStream
481.880752	0.016000	dropped_samples	4765.330349	Dropped 4 samples	n/a	n/a	n/a	n/a	n/a	n/a	4	UoHDataOffsetStream
482.358845	0.000000	2-back	4765.808442	Steps:2 KeyPress:True Matched:False	0	2	true	false	Wrong	false	n/a	n-backMarkers
483.702035	0.004000	dropped_samples	4767.151632	Dropped 1 samples	n/a	n/a	n/a	n/a	n/a	n/a	1	UoHDataOffsetStream
483.921838	0.008000	dropped_samples	4767.371435	Dropped 2 samples	n/a	n/a	n/a	n/a	n/a	n/a	2	UoHDataOffsetStream
484.059797	0.000000	2-back	4767.509393	Steps:2 KeyPress:False Matched:False	1	2	false	false	Correct	false	n/a	n-backMarkers
485.760154	0.000000	2-back	4769.209751	Steps:2 KeyPress:False Matched:False	1	2	false	false	Correct	false	n/a	n-backMarkers
486.485269	0.008000	dropped_samples	4769.934865	Dropped 2 samples	n/a	n/a	n/a	n/a	n/a	n/a	2	UoHDataOffsetStream
487.460907	0.000000	2-back	4770.910503	Steps:2 KeyPress:True Matched:False	0	2	true	false	Wrong	false	n/a	n-backMarkers
488.023343	0.012000	dropped_samples	4771.472940	Dropped 3 samples	n/a	n/a	n/a	n/a	n/a	n/a	3	UoHDataOffsetStream
489.161878	0.000000	2-back	4772.611474	Steps:2 KeyPress:False Matched:True	0	2	false	true	Wrong	false	n/a	n-backMarkers
490.862953	0.000000	2-back	4774.312549	Steps:2 KeyPress:False Matched:False	1	2	false	false	Correct	false	n/a	n-backMarkers
491.119034	0.004000	dropped_samples	4774.568630	Dropped 1 samples	n/a	n/a	n/a	n/a	n/a	n/a	1	UoHDataOffsetStream
491.529405	0.012000	dropped_samples	4774.979001	Dropped 3 samples	n/a	n/a	n/a	n/a	n/a	n/a	3	UoHDataOffsetStream
491.992363	0.012000	dropped_samples	4775.441959	Dropped 3 samples	n/a	n/a	n/a	n/a	n/a	n/a	3	UoHDataOffsetStream
492.564308	0.000000	2-back	4776.013904	Steps:2 KeyPress:False Matched:False	1	2	false	false	Correct	false	n/a	n-backMarkers
494.265763	0.000000	2-back	4777.715359	Steps:2 KeyPress:True Matched:False	0	2	true	false	Wrong	false	n/a	n-backMarkers
495.679585	0.012000	dropped_samples	4779.129182	Dropped 3 samples	n/a	n/a	n/a	n/a	n/a	n/a	3	UoHDataOffsetStream
495.966661	0.000000	2-back	4779.416257	Steps:2 KeyPress:False Matched:True	0	2	false	true	Wrong	false	n/a	n-backMarkers
497.667662	0.000000	2-back	4781.117258	Steps:2 KeyPress:False Matched:False	1	2	false	false	Correct	false	n/a	n-backMarkers
498.033115	0.004000	dropped_samples	4781.482711	Dropped 1 samples	n/a	n/a	n/a	n/a	n/a	n/a	1	UoHDataOffsetStream
498.536046	0.012000	dropped_samples	4781.985642	Dropped 3 samples	n/a	n/a	n/a	n/a	n/a	n/a	3	UoHDataOffsetStream
499.368693	0.000000	2-back	4782.818289	Steps:2 KeyPress:True Matched:False	0	2	true	false	Wrong	false	n/a	n-backMarkers
500.240142	0.004000	dropped_samples	4783.689738	Dropped 1 samples	n/a	n/a	n/a	n/a	n/a	n/a	1	UoHDataOffsetStream
500.577109	0.004000	dropped_samples	4784.026705	Dropped 1 samples	n/a	n/a	n/a	n/a	n/a	n/a	1	UoHDataOffsetStream
501.069768	0.000000	2-back	4784.519364	Steps:2 KeyPress:True Matched:False	0	2	true	false	Wrong	false	n/a	n-backMarkers
501.294834	0.012000	dropped_samples	4784.744430	Dropped 3 samples	n/a	n/a	n/a	n/a	n/a	n/a	3	UoHDataOffsetStream
501.729414	0.008000	dropped_samples	4785.179010	Dropped 2 samples	n/a	n/a	n/a	n/a	n/a	n/a	2	UoHDataOffsetStream
502.447194	0.012000	dropped_samples	4785.896791	Dropped 3 samples	n/a	n/a	n/a	n/a	n/a	n/a	3	UoHDataOffsetStream
502.771096	0.000000	2-back	4786.220692	Steps:2 KeyPress:False Matched:True	0	2	false	true	Wrong	false	n/a	n-backMarkers
503.317575	0.004000	dropped_samples	4786.767171	Dropped 1 samples	n/a	n/a	n/a	n/a	n/a	n/a	1	UoHDataOffsetStream
503.360292	0.012000	dropped_samples	4786.809888	Dropped 3 samples	n/a	n/a	n/a	n/a	n/a	n/a	3	UoHDataOffsetStream
503.575093	0.004000	dropped_samples	4787.024689	Dropped 1 samples	n/a	n/a	n/a	n/a	n/a	n/a	1	UoHDataOffsetStream
504.471333	0.000000	2-back	4787.920929	Steps:2 KeyPress:False Matched:False	1	2	false	false	Correct	false	n/a	n-backMarkers
505.469680	0.012000	dropped_samples	4788.919277	Dropped 3 samples	n/a	n/a	n/a	n/a	n/a	n/a	3	UoHDataOffsetStream
506.001890	0.008000	dropped_samples	4789.451486	Dropped 2 samples	n/a	n/a	n/a	n/a	n/a	n/a	2	UoHDataOffsetStream
506.171949	0.000000	2-back	4789.621545	Steps:2 KeyPress:False Matched:False	1	2	false	false	Correct	false	n/a	n-backMarkers
506.192285	0.008000	dropped_samples	4789.641881	Dropped 2 samples	n/a	n/a	n/a	n/a	n/a	n/a	2	UoHDataOffsetStream
506.382790	0.012000	dropped_samples	4789.832387	Dropped 3 samples	n/a	n/a	n/a	n/a	n/a	n/a	3	UoHDataOffsetStream
507.056533	0.004000	dropped_samples	4790.506129	Dropped 1 samples	n/a	n/a	n/a	n/a	n/a	n/a	1	UoHDataOffsetStream
507.749930	0.012000	dropped_samples	4791.199526	Dropped 3 samples	n/a	n/a	n/a	n/a	n/a	n/a	3	UoHDataOffsetStream
507.873819	0.000000	2-back	4791.323416	Steps:2 KeyPress:True Matched:False	0	2	true	false	Wrong	false	n/a	n-backMarkers
508.135667	0.004000	dropped_samples	4791.585263	Dropped 1 samples	n/a	n/a	n/a	n/a	n/a	n/a	1	UoHDataOffsetStream
508.545841	0.004000	dropped_samples	4791.995438	Dropped 1 samples	n/a	n/a	n/a	n/a	n/a	n/a	1	UoHDataOffsetStream
509.574829	0.000000	2-back	4793.024425	Steps:2 KeyPress:False Matched:False	1	2	false	false	Correct	false	n/a	n-backMarkers
510.826098	0.004000	dropped_samples	4794.275694	Dropped 1 samples	n/a	n/a	n/a	n/a	n/a	n/a	1	UoHDataOffsetStream
510.870040	0.004000	dropped_samples	4794.319636	Dropped 1 samples	n/a	n/a	n/a	n/a	n/a	n/a	1	UoHDataOffsetStream
511.274865	0.000000	2-back	4794.724461	Steps:2 KeyPress:False Matched:False	1	2	false	false	Correct	false	n/a	n-backMarkers
511.282789	0.008000	dropped_samples	4794.732385	Dropped 2 samples	n/a	n/a	n/a	n/a	n/a	n/a	2	UoHDataOffsetStream
512.976113	0.000000	2-back	4796.425710	Steps:2 KeyPress:True Matched:False	0	2	true	false	Wrong	false	n/a	n-backMarkers
514.248421	0.008000	dropped_samples	4797.698017	Dropped 2 samples	n/a	n/a	n/a	n/a	n/a	n/a	2	UoHDataOffsetStream
514.334818	0.012000	dropped_samples	4797.784414	Dropped 3 samples	n/a	n/a	n/a	n/a	n/a	n/a	3	UoHDataOffsetStream
514.336116	0.008000	dropped_samples	4797.785713	Dropped 2 samples	n/a	n/a	n/a	n/a	n/a	n/a	2	UoHDataOffsetStream
514.375966	0.032000	dropped_samples	4797.825562	Dropped 8 samples	n/a	n/a	n/a	n/a	n/a	n/a	8	UoHDataOffsetStream
514.676919	0.000000	2-back	4798.126516	Steps:2 KeyPress:False Matched:False	1	2	false	false	Correct	false	n/a	n-backMarkers
514.761664	0.008000	dropped_samples	4798.211260	Dropped 2 samples	n/a	n/a	n/a	n/a	n/a	n/a	2	UoHDataOffsetStream
515.865167	0.004000	dropped_samples	4799.314763	Dropped 1 samples	n/a	n/a	n/a	n/a	n/a	n/a	1	UoHDataOffsetStream
516.378789	0.000000	2-back	4799.828386	Steps:2 KeyPress:False Matched:False	1	2	false	false	Correct	false	n/a	n-backMarkers
518.080682	0.000000	2-back	4801.530279	Steps:2 KeyPress:True Matched:False	0	2	true	false	Wrong	false	n/a	n-backMarkers
519.781205	0.000000	2-back	4803.230801	Steps:2 KeyPress:False Matched:True	0	2	false	true	Wrong	false	n/a	n-backMarkers
520.376876	0.004000	dropped_samples	4803.826472	Dropped 1 samples	n/a	n/a	n/a	n/a	n/a	n/a	1	UoHDataOffsetStream
521.481827	0.000000	2-back	4804.931423	Steps:2 KeyPress:False Matched:False	1	2	false	false	Correct	false	n/a	n-backMarkers
522.798774	0.008000	dropped_samples	4806.248371	Dropped 2 samples	n/a	n/a	n/a	n/a	n/a	n/a	2	UoHDataOffsetStream
523.182900	0.000000	2-back	4806.632496	Steps:2 KeyPress:False Matched:False	1	2	false	false	Correct	false	n/a	n-backMarkers
524.884755	0.000000	2-back	4808.334351	Steps:2 KeyPress:True Matched:False	0	2	true	false	Wrong	false	n/a	n-backMarkers
524.937442	0.004000	dropped_samples	4808.387038	Dropped 1 samples	n/a	n/a	n/a	n/a	n/a	n/a	1	UoHDataOffsetStream
525.440344	0.004000	dropped_samples	4808.889940	Dropped 1 samples	n/a	n/a	n/a	n/a	n/a	n/a	1	UoHDataOffsetStream
525.704037	0.004000	dropped_samples	4809.153634	Dropped 1 samples	n/a	n/a	n/a	n/a	n/a	n/a	1	UoHDataOffsetStream
526.585217	0.000000	2-back	4810.034813	Steps:2 KeyPress:False Matched:True	0	2	false	true	Wrong	false	n/a	n-backMarkers
528.247989	0.004000	dropped_samples	4811.697585	Dropped 1 samples	n/a	n/a	n/a	n/a	n/a	n/a	1	UoHDataOffsetStream
528.285919	0.000000	2-back	4811.735515	Steps:2 KeyPress:False Matched:False	1	2	false	false	Correct	false	n/a	n-backMarkers
529.987692	0.000000	2-back	4813.437288	Steps:2 KeyPress:False Matched:False	1	2	false	false	Correct	false	n/a	n-backMarkers
531.688757	0.000000	2-back	4815.138353	Steps:2 KeyPress:True Matched:False	0	2	true	false	Wrong	false	n/a	n-backMarkers
533.389531	0.000000	2-back	4816.839127	Steps:2 KeyPress:False Matched:True	0	2	false	true	Wrong	false	n/a	n-backMarkers
533.531383	0.012000	dropped_samples	4816.980980	Dropped 3 samples	n/a	n/a	n/a	n/a	n/a	n/a	3	UoHDataOffsetStream
533.599523	0.004000	dropped_samples	4817.049119	Dropped 1 samples	n/a	n/a	n/a	n/a	n/a	n/a	1	UoHDataOffsetStream
533.936443	0.012000	dropped_samples	4817.386039	Dropped 3 samples	n/a	n/a	n/a	n/a	n/a	n/a	3	UoHDataOffsetStream
535.089748	0.000000	2-back	4818.539344	Steps:2 KeyPress:False Matched:False	1	2	false	false	Correct	false	n/a	n-backMarkers
535.855404	0.004000	dropped_samples	4819.305000	Dropped 1 samples	n/a	n/a	n/a	n/a	n/a	n/a	1	UoHDataOffsetStream
536.791124	0.000000	2-back	4820.240721	Steps:2 KeyPress:True Matched:True	1	2	true	true	Correct	false	n/a	n-backMarkers
538.492025	0.000000	2-back	4821.941621	Steps:2 KeyPress:False Matched:False	1	2	false	false	Correct	false	n/a	n-backMarkers
539.600528	0.004000	dropped_samples	4823.050124	Dropped 1 samples	n/a	n/a	n/a	n/a	n/a	n/a	1	UoHDataOffsetStream
539.742340	0.004000	dropped_samples	4823.191936	Dropped 1 samples	n/a	n/a	n/a	n/a	n/a	n/a	1	UoHDataOffsetStream
540.192707	0.000000	2-back	4823.642304	Steps:2 KeyPress:False Matched:False	1	2	false	false	Correct	false	n/a	n-backMarkers
540.728467	0.004000	dropped_samples	4824.178064	Dropped 1 samples	n/a	n/a	n/a	n/a	n/a	n/a	1	UoHDataOffsetStream
541.893753	0.000000	2-back	4825.343350	Steps:2 KeyPress:False Matched:False	1	2	false	false	Correct	false	n/a	n-backMarkers
543.595557	0.000000	2-back	4827.045153	Steps:2 KeyPress:False Matched:True	0	2	false	true	Wrong	false	n/a	n-backMarkers
545.295617	0.000000	2-back	4828.745214	Steps:2 KeyPress:False Matched:False	1	2	false	false	Correct	false	n/a	n-backMarkers
545.957973	0.012000	dropped_samples	4829.407570	Dropped 3 samples	n/a	n/a	n/a	n/a	n/a	n/a	3	UoHDataOffsetStream
546.995609	0.000000	2-back	4830.445206	Steps:2 KeyPress:False Matched:False	1	2	false	false	Correct	false	n/a	n-backMarkers
548.482376	0.012000	dropped_samples	4831.931973	Dropped 3 samples	n/a	n/a	n/a	n/a	n/a	n/a	3	UoHDataOffsetStream
548.697550	0.000000	2-back	4832.147146	Steps:2 KeyPress:True Matched:False	0	2	true	false	Wrong	false	n/a	n-backMarkers
548.746038	0.004000	dropped_samples	4832.195634	Dropped 1 samples	n/a	n/a	n/a	n/a	n/a	n/a	1	UoHDataOffsetStream
549.200132	0.012000	dropped_samples	4832.649729	Dropped 3 samples	n/a	n/a	n/a	n/a	n/a	n/a	3	UoHDataOffsetStream
549.257742	0.004000	dropped_samples	4832.707339	Dropped 1 samples	n/a	n/a	n/a	n/a	n/a	n/a	1	UoHDataOffsetStream
549.404488	0.004000	dropped_samples	4832.854084	Dropped 1 samples	n/a	n/a	n/a	n/a	n/a	n/a	1	UoHDataOffsetStream
549.439401	0.012000	dropped_samples	4832.888997	Dropped 3 samples	n/a	n/a	n/a	n/a	n/a	n/a	3	UoHDataOffsetStream
550.398671	0.000000	2-back	4833.848268	Steps:2 KeyPress:False Matched:False	1	2	false	false	Correct	false	n/a	n-backMarkers
551.456011	0.012000	dropped_samples	4834.905607	Dropped 3 samples	n/a	n/a	n/a	n/a	n/a	n/a	3	UoHDataOffsetStream
552.099605	0.000000	2-back	4835.549201	Steps:2 KeyPress:False Matched:False	1	2	false	false	Correct	false	n/a	n-backMarkers
553.399361	0.004000	dropped_samples	4836.848958	Dropped 1 samples	n/a	n/a	n/a	n/a	n/a	n/a	1	UoHDataOffsetStream
553.800231	0.000000	2-back	4837.249827	Steps:2 KeyPress:True Matched:False	0	2	true	false	Wrong	false	n/a	n-backMarkers
555.501124	0.000000	2-back	4838.950721	Steps:2 KeyPress:True Matched:True	1	2	true	true	Correct	false	n/a	n-backMarkers
556.041672	0.004000	dropped_samples	4839.491268	Dropped 1 samples	n/a	n/a	n/a	n/a	n/a	n/a	1	UoHDataOffsetStream
557.203051	0.000000	2-back	4840.652648	Steps:2 KeyPress:False Matched:False	1	2	false	false	Correct	false	n/a	n-backMarkers
558.904610	0.000000	2-back	4842.354206	Steps:2 KeyPress:False Matched:True	0	2	false	true	Wrong	false	n/a	n-backMarkers
559.327111	0.004000	dropped_samples	4842.776707	Dropped 1 samples	n/a	n/a	n/a	n/a	n/a	n/a	1	UoHDataOffsetStream
560.605786	0.000000	2-back	4844.055382	Steps:2 KeyPress:False Matched:False	1	2	false	false	Correct	false	n/a	n-backMarkers
562.306947	0.000000	2-back	4845.756543	Steps:2 KeyPress:False Matched:False	1	2	false	false	Correct	false	n/a	n-backMarkers
564.008616	0.000000	2-back	4847.458212	Steps:2 KeyPress:True Matched:False	0	2	true	false	Wrong	false	n/a	n-backMarkers
564.322255	0.008000	dropped_samples	4847.771852	Dropped 2 samples	n/a	n/a	n/a	n/a	n/a	n/a	2	UoHDataOffsetStream
565.230666	0.004000	dropped_samples	4848.680262	Dropped 1 samples	n/a	n/a	n/a	n/a	n/a	n/a	1	UoHDataOffsetStream
565.710632	0.000000	2-back	4849.160228	Steps:2 KeyPress:False Matched:True	0	2	false	true	Wrong	false	n/a	n-backMarkers
566.143493	0.004000	dropped_samples	4849.593089	Dropped 1 samples	n/a	n/a	n/a	n/a	n/a	n/a	1	UoHDataOffsetStream
567.410816	0.000000	2-back	4850.860412	Steps:2 KeyPress:True Matched:False	0	2	true	false	Wrong	false	n/a	n-backMarkers
569.112231	0.000000	2-back	4852.561828	Steps:2 KeyPress:False Matched:True	0	2	false	true	Wrong	false	n/a	n-backMarkers
570.812686	0.000000	2-back	4854.262282	Steps:2 KeyPress:False Matched:False	1	2	false	false	Correct	false	n/a	n-backMarkers
571.421855	0.012000	dropped_samples	4854.871452	Dropped 3 samples	n/a	n/a	n/a	n/a	n/a	n/a	3	UoHDataOffsetStream
572.513670	0.000000	2-back	4855.963266	Steps:2 KeyPress:False Matched:False	1	2	false	false	Correct	false	n/a	n-backMarkers
572.574189	0.016000	dropped_samples	4856.023786	Dropped 4 samples	n/a	n/a	n/a	n/a	n/a	n/a	4	UoHDataOffsetStream
573.946268	0.012000	dropped_samples	4857.395864	Dropped 3 samples	n/a	n/a	n/a	n/a	n/a	n/a	3	UoHDataOffsetStream
574.213805	0.000000	2-back	4857.663402	Steps:2 KeyPress:False Matched:False	1	2	false	false	Correct	false	n/a	n-backMarkers
575.915812	0.000000	2-back	4859.365408	Steps:2 KeyPress:False Matched:False	1	2	false	false	Correct	false	n/a	n-backMarkers
576.270504	0.004000	dropped_samples	4859.720101	Dropped 1 samples	n/a	n/a	n/a	n/a	n/a	n/a	1	UoHDataOffsetStream
576.607400	0.004000	dropped_samples	4860.056996	Dropped 1 samples	n/a	n/a	n/a	n/a	n/a	n/a	1	UoHDataOffsetStream
577.569278	0.008000	dropped_samples	4861.018874	Dropped 2 samples	n/a	n/a	n/a	n/a	n/a	n/a	2	UoHDataOffsetStream
577.616774	0.000000	2-back	4861.066370	Steps:2 KeyPress:False Matched:False	1	2	false	false	Correct	false	n/a	n-backMarkers
578.814424	0.004000	dropped_samples	4862.264020	Dropped 1 samples	n/a	n/a	n/a	n/a	n/a	n/a	1	UoHDataOffsetStream
579.126918	0.012000	dropped_samples	4862.576514	Dropped 3 samples	n/a	n/a	n/a	n/a	n/a	n/a	3	UoHDataOffsetStream
579.318535	0.000000	2-back	4862.768131	Steps:2 KeyPress:False Matched:False	1	2	false	false	Correct	false	n/a	n-backMarkers
580.162104	0.004000	dropped_samples	4863.611701	Dropped 1 samples	n/a	n/a	n/a	n/a	n/a	n/a	1	UoHDataOffsetStream
580.518576	0.028000	dropped_samples	4863.968172	Dropped 7 samples	n/a	n/a	n/a	n/a	n/a	n/a	7	UoHDataOffsetStream
581.018703	0.000000	2-back	4864.468300	Steps:2 KeyPress:False Matched:False	1	2	false	false	Correct	false	n/a	n-backMarkers
581.626901	0.008000	dropped_samples	4865.076497	Dropped 2 samples	n/a	n/a	n/a	n/a	n/a	n/a	2	UoHDataOffsetStream
582.719813	0.000000	2-back	4866.169410	Steps:2 KeyPress:False Matched:False	1	2	false	false	Correct	false	n/a	n-backMarkers
582.754889	0.008000	dropped_samples	4866.204485	Dropped 2 samples	n/a	n/a	n/a	n/a	n/a	n/a	2	UoHDataOffsetStream
583.160132	0.008000	dropped_samples	4866.609729	Dropped 2 samples	n/a	n/a	n/a	n/a	n/a	n/a	2	UoHDataOffsetStream
583.970959	0.008000	dropped_samples	4867.420556	Dropped 2 samples	n/a	n/a	n/a	n/a	n/a	n/a	2	UoHDataOffsetStream
584.420792	0.000000	2-back	4867.870388	Steps:2 KeyPress:False Matched:False	1	2	false	false	Correct	false	n/a	n-backMarkers
585.548040	0.012000	dropped_samples	4868.997636	Dropped 3 samples	n/a	n/a	n/a	n/a	n/a	n/a	3	UoHDataOffsetStream
586.121622	0.000000	2-back	4869.571218	Steps:2 KeyPress:True Matched:False	0	2	true	false	Wrong	false	n/a	n-backMarkers
586.412110	0.004000	dropped_samples	4869.861706	Dropped 1 samples	n/a	n/a	n/a	n/a	n/a	n/a	1	UoHDataOffsetStream
586.846897	0.004000	dropped_samples	4870.296494	Dropped 1 samples	n/a	n/a	n/a	n/a	n/a	n/a	1	UoHDataOffsetStream
587.178867	0.012000	dropped_samples	4870.628463	Dropped 3 samples	n/a	n/a	n/a	n/a	n/a	n/a	3	UoHDataOffsetStream
587.822711	0.000000	2-back	4871.272307	Steps:2 KeyPress:False Matched:True	0	2	false	true	Wrong	false	n/a	n-backMarkers
589.523743	0.000000	2-back	4872.973339	Steps:2 KeyPress:True Matched:False	0	2	true	false	Wrong	false	n/a	n-backMarkers
591.224685	0.000000	2-back	4874.674281	Steps:2 KeyPress:False Matched:True	0	2	false	true	Wrong	false	n/a	n-backMarkers
592.701855	0.008000	dropped_samples	4876.151451	Dropped 2 samples	n/a	n/a	n/a	n/a	n/a	n/a	2	UoHDataOffsetStream
592.891818	0.012000	dropped_samples	4876.341415	Dropped 3 samples	n/a	n/a	n/a	n/a	n/a	n/a	3	UoHDataOffsetStream
592.926616	0.000000	2-back	4876.376212	Steps:2 KeyPress:True Matched:False	0	2	true	false	Wrong	false	n/a	n-backMarkers
594.078146	0.004000	dropped_samples	4877.527743	Dropped 1 samples	n/a	n/a	n/a	n/a	n/a	n/a	1	UoHDataOffsetStream
594.141790	0.008000	dropped_samples	4877.591387	Dropped 2 samples	n/a	n/a	n/a	n/a	n/a	n/a	2	UoHDataOffsetStream
594.429930	0.012000	dropped_samples	4877.879527	Dropped 3 samples	n/a	n/a	n/a	n/a	n/a	n/a	3	UoHDataOffsetStream
594.627663	0.000000	2-back	4878.077260	Steps:2 KeyPress:False Matched:True	0	2	false	true	Wrong	false	n/a	n-backMarkers
595.484812	0.004000	dropped_samples	4878.934408	Dropped 1 samples	n/a	n/a	n/a	n/a	n/a	n/a	1	UoHDataOffsetStream
596.328639	0.000000	2-back	4879.778236	Steps:2 KeyPress:False Matched:False	1	2	false	false	Correct	false	n/a	n-backMarkers
597.740519	0.012000	dropped_samples	4881.190115	Dropped 3 samples	n/a	n/a	n/a	n/a	n/a	n/a	3	UoHDataOffsetStream
598.030580	0.000000	2-back	4881.480176	Steps:2 KeyPress:False Matched:False	1	2	false	false	Correct	false	n/a	n-backMarkers
599.731573	0.000000	2-back	4883.181169	Steps:2 KeyPress:True Matched:False	0	2	true	false	Wrong	false	n/a	n-backMarkers
601.246423	0.004000	dropped_samples	4884.696020	Dropped 1 samples	n/a	n/a	n/a	n/a	n/a	n/a	1	UoHDataOffsetStream
601.432565	0.000000	2-back	4884.882162	Steps:2 KeyPress:False Matched:False	1	2	false	false	Correct	false	n/a	n-backMarkers
602.398656	0.004000	dropped_samples	4885.848252	Dropped 1 samples	n/a	n/a	n/a	n/a	n/a	n/a	1	UoHDataOffsetStream
602.735571	0.004000	dropped_samples	4886.185167	Dropped 1 samples	n/a	n/a	n/a	n/a	n/a	n/a	1	UoHDataOffsetStream
602.974825	0.004000	dropped_samples	4886.424421	Dropped 1 samples	n/a	n/a	n/a	n/a	n/a	n/a	1	UoHDataOffsetStream
603.133578	0.000000	2-back	4886.583174	Steps:2 KeyPress:False Matched:False	1	2	false	false	Correct	false	n/a	n-backMarkers
604.835574	0.000000	2-back	4888.285171	Steps:2 KeyPress:True Matched:False	0	2	true	false	Wrong	false	n/a	n-backMarkers
605.518777	0.004000	dropped_samples	4888.968373	Dropped 1 samples	n/a	n/a	n/a	n/a	n/a	n/a	1	UoHDataOffsetStream
606.536644	0.000000	2-back	4889.986241	Steps:2 KeyPress:False Matched:False	1	2	false	false	Correct	false	n/a	n-backMarkers
608.238512	0.000000	2-back	4891.688109	Steps:2 KeyPress:False Matched:False	1	2	false	false	Correct	false	n/a	n-backMarkers
608.687742	0.012000	dropped_samples	4892.137338	Dropped 3 samples	n/a	n/a	n/a	n/a	n/a	n/a	3	UoHDataOffsetStream
609.938595	0.000000	2-back	4893.388192	Steps:2 KeyPress:True Matched:False	0	2	true	false	Wrong	false	n/a	n-backMarkers
611.639595	0.000000	2-back	4895.089191	Steps:2 KeyPress:False Matched:True	0	2	false	true	Wrong	false	n/a	n-backMarkers
612.525638	0.012000	dropped_samples	4895.975235	Dropped 3 samples	n/a	n/a	n/a	n/a	n/a	n/a	3	UoHDataOffsetStream
613.340526	0.000000	2-back	4896.790123	Steps:2 KeyPress:False Matched:False	1	2	false	false	Correct	false	n/a	n-backMarkers
615.040505	0.000000	2-back	4898.490101	Steps:2 KeyPress:False Matched:False	1	2	false	false	Correct	false	n/a	n-backMarkers
616.742007	0.000000	2-back	4900.191603	Steps:2 KeyPress:True Matched:False	0	2	true	false	Wrong	false	n/a	n-backMarkers
617.183823	0.004000	dropped_samples	4900.633420	Dropped 1 samples	n/a	n/a	n/a	n/a	n/a	n/a	1	UoHDataOffsetStream
618.442732	0.000000	2-back	4901.892329	Steps:2 KeyPress:False Matched:True	0	2	false	true	Wrong	false	n/a	n-backMarkers
620.143056	0.000000	2-back	4903.592652	Steps:2 KeyPress:True Matched:False	0	2	true	false	Wrong	false	n/a	n-backMarkers
620.592021	0.004000	dropped_samples	4904.041617	Dropped 1 samples	n/a	n/a	n/a	n/a	n/a	n/a	1	UoHDataOffsetStream
621.843103	0.000000	2-back	4905.292699	Steps:2 KeyPress:False Matched:False	1	2	false	false	Correct	false	n/a	n-backMarkers
626.636967	0.004000	dropped_samples	4910.086563	Dropped 1 samples	n/a	n/a	n/a	n/a	n/a	n/a	1	UoHDataOffsetStream
630.562419	0.000000	3-back	4914.012015	Steps:3 KeyPress:False Matched:False	1	3	false	false	Correct	false	n/a	n-backMarkers
632.262749	0.000000	3-back	4915.712345	Steps:3 KeyPress:False Matched:False	1	3	false	false	Correct	false	n/a	n-backMarkers
633.262917	0.008000	dropped_samples	4916.712513	Dropped 2 samples	n/a	n/a	n/a	n/a	n/a	n/a	2	UoHDataOffsetStream
633.964413	0.000000	3-back	4917.414009	Steps:3 KeyPress:False Matched:False	1	3	false	false	Correct	false	n/a	n-backMarkers
634.078456	0.008000	dropped_samples	4917.528052	Dropped 2 samples	n/a	n/a	n/a	n/a	n/a	n/a	2	UoHDataOffsetStream
635.353124	0.008000	dropped_samples	4918.802720	Dropped 2 samples	n/a	n/a	n/a	n/a	n/a	n/a	2	UoHDataOffsetStream
635.666996	0.000000	3-back	4919.116593	Steps:3 KeyPress:False Matched:False	1	3	false	false	Correct	false	n/a	n-backMarkers
635.758047	0.004000	dropped_samples	4919.207644	Dropped 1 samples	n/a	n/a	n/a	n/a	n/a	n/a	1	UoHDataOffsetStream
636.768818	0.008000	dropped_samples	4920.218414	Dropped 2 samples	n/a	n/a	n/a	n/a	n/a	n/a	2	UoHDataOffsetStream
637.366595	0.000000	3-back	4920.816192	Steps:3 KeyPress:False Matched:False	1	3	false	false	Correct	false	n/a	n-backMarkers
637.501746	0.012000	dropped_samples	4920.951342	Dropped 3 samples	n/a	n/a	n/a	n/a	n/a	n/a	3	UoHDataOffsetStream
639.068482	0.000000	3-back	4922.518078	Steps:3 KeyPress:True Matched:False	0	3	true	false	Wrong	false	n/a	n-backMarkers
639.312818	0.004000	dropped_samples	4922.762414	Dropped 1 samples	n/a	n/a	n/a	n/a	n/a	n/a	1	UoHDataOffsetStream
640.770611	0.000000	3-back	4924.220207	Steps:3 KeyPress:False Matched:True	0	3	false	true	Wrong	false	n/a	n-backMarkers
641.612653	0.004000	dropped_samples	4925.062249	Dropped 1 samples	n/a	n/a	n/a	n/a	n/a	n/a	1	UoHDataOffsetStream
642.432722	0.004000	dropped_samples	4925.882319	Dropped 1 samples	n/a	n/a	n/a	n/a	n/a	n/a	1	UoHDataOffsetStream
642.470846	0.000000	3-back	4925.920443	Steps:3 KeyPress:False Matched:False	1	3	false	false	Correct	false	n/a	n-backMarkers
644.171293	0.000000	3-back	4927.620890	Steps:3 KeyPress:False Matched:False	1	3	false	false	Correct	false	n/a	n-backMarkers
645.308927	0.004000	dropped_samples	4928.758524	Dropped 1 samples	n/a	n/a	n/a	n/a	n/a	n/a	1	UoHDataOffsetStream
645.694605	0.004000	dropped_samples	4929.144202	Dropped 1 samples	n/a	n/a	n/a	n/a	n/a	n/a	1	UoHDataOffsetStream
645.872611	0.000000	3-back	4929.322207	Steps:3 KeyPress:False Matched:False	1	3	false	false	Correct	false	n/a	n-backMarkers
647.423111	0.012000	dropped_samples	4930.872707	Dropped 3 samples	n/a	n/a	n/a	n/a	n/a	n/a	3	UoHDataOffsetStream
647.574668	0.000000	3-back	4931.024264	Steps:3 KeyPress:False Matched:False	1	3	false	false	Correct	false	n/a	n-backMarkers
649.275505	0.000000	3-back	4932.725102	Steps:3 KeyPress:False Matched:False	1	3	false	false	Correct	false	n/a	n-backMarkers
649.439723	0.004000	dropped_samples	4932.889320	Dropped 1 samples	n/a	n/a	n/a	n/a	n/a	n/a	1	UoHDataOffsetStream
650.976311	0.000000	3-back	4934.425908	Steps:3 KeyPress:False Matched:True	0	3	false	true	Wrong	false	n/a	n-backMarkers
652.676434	0.000000	3-back	4936.126030	Steps:3 KeyPress:False Matched:False	1	3	false	false	Correct	false	n/a	n-backMarkers
652.799089	0.012000	dropped_samples	4936.248686	Dropped 3 samples	n/a	n/a	n/a	n/a	n/a	n/a	3	UoHDataOffsetStream
654.378356	0.000000	3-back	4937.827952	Steps:3 KeyPress:False Matched:False	1	3	false	false	Correct	false	n/a	n-backMarkers
655.245405	0.004000	dropped_samples	4938.695001	Dropped 1 samples	n/a	n/a	n/a	n/a	n/a	n/a	1	UoHDataOffsetStream
655.343047	0.004000	dropped_samples	4938.792644	Dropped 1 samples	n/a	n/a	n/a	n/a	n/a	n/a	1	UoHDataOffsetStream
656.079510	0.000000	3-back	4939.529106	Steps:3 KeyPress:False Matched:False	1	3	false	false	Correct	false	n/a	n-backMarkers
656.636932	0.004000	dropped_samples	4940.086528	Dropped 1 samples	n/a	n/a	n/a	n/a	n/a	n/a	1	UoHDataOffsetStream
657.780509	0.000000	3-back	4941.230105	Steps:3 KeyPress:True Matched:False	0	3	true	false	Wrong	false	n/a	n-backMarkers
659.468996	0.012000	dropped_samples	4942.918592	Dropped 3 samples	n/a	n/a	n/a	n/a	n/a	n/a	3	UoHDataOffsetStream
659.481326	0.000000	3-back	4942.930922	Steps:3 KeyPress:False Matched:True	0	3	false	true	Wrong	false	n/a	n-backMarkers
661.182254	0.000000	3-back	4944.631851	Steps:3 KeyPress:False Matched:False	1	3	false	false	Correct	false	n/a	n-backMarkers
662.784433	0.008000	dropped_samples	4946.234030	Dropped 2 samples	n/a	n/a	n/a	n/a	n/a	n/a	2	UoHDataOffsetStream
662.884193	0.000000	3-back	4946.333789	Steps:3 KeyPress:False Matched:False	1	3	false	false	Correct	false	n/a	n-backMarkers
664.585304	0.000000	3-back	4948.034900	Steps:3 KeyPress:False Matched:False	1	3	false	false	Correct	false	n/a	n-backMarkers
666.285409	0.000000	3-back	4949.735006	Steps:3 KeyPress:False Matched:False	1	3	false	false	Correct	false	n/a	n-backMarkers
667.986376	0.000000	3-back	4951.435973	Steps:3 KeyPress:False Matched:False	1	3	false	false	Correct	false	n/a	n-backMarkers
668.243608	0.012000	dropped_samples	4951.693204	Dropped 3 samples	n/a	n/a	n/a	n/a	n/a	n/a	3	UoHDataOffsetStream
668.325461	0.024000	dropped_samples	4951.775058	Dropped 6 samples	n/a	n/a	n/a	n/a	n/a	n/a	6	UoHDataOffsetStream
668.350742	0.004000	dropped_samples	4951.800338	Dropped 1 samples	n/a	n/a	n/a	n/a	n/a	n/a	1	UoHDataOffsetStream
669.644919	0.008000	dropped_samples	4953.094515	Dropped 2 samples	n/a	n/a	n/a	n/a	n/a	n/a	2	UoHDataOffsetStream
669.688226	0.000000	3-back	4953.137823	Steps:3 KeyPress:False Matched:False	1	3	false	false	Correct	false	n/a	n-backMarkers
671.389308	0.000000	3-back	4954.838904	Steps:3 KeyPress:False Matched:False	1	3	false	false	Correct	false	n/a	n-backMarkers
673.089519	0.000000	3-back	4956.539115	Steps:3 KeyPress:True Matched:False	0	3	true	false	Wrong	false	n/a	n-backMarkers
674.790756	0.000000	3-back	4958.240352	Steps:3 KeyPress:False Matched:True	0	3	false	true	Wrong	false	n/a	n-backMarkers
675.264988	0.008000	dropped_samples	4958.714585	Dropped 2 samples	n/a	n/a	n/a	n/a	n/a	n/a	2	UoHDataOffsetStream
676.491188	0.000000	3-back	4959.940784	Steps:3 KeyPress:False Matched:False	1	3	false	false	Correct	false	n/a	n-backMarkers
678.191548	0.000000	3-back	4961.641144	Steps:3 KeyPress:False Matched:False	1	3	false	false	Correct	false	n/a	n-backMarkers
679.892604	0.000000	3-back	4963.342200	Steps:3 KeyPress:False Matched:False	1	3	false	false	Correct	false	n/a	n-backMarkers
681.593328	0.000000	3-back	4965.042925	Steps:3 KeyPress:False Matched:False	1	3	false	false	Correct	false	n/a	n-backMarkers
683.273539	0.012000	dropped_samples	4966.723135	Dropped 3 samples	n/a	n/a	n/a	n/a	n/a	n/a	3	UoHDataOffsetStream
683.295164	0.000000	3-back	4966.744760	Steps:3 KeyPress:False Matched:False	1	3	false	false	Correct	false	n/a	n-backMarkers
683.326462	0.020000	dropped_samples	4966.776058	Dropped 5 samples	n/a	n/a	n/a	n/a	n/a	n/a	5	UoHDataOffsetStream
684.995293	0.000000	3-back	4968.444890	Steps:3 KeyPress:False Matched:False	1	3	false	false	Correct	false	n/a	n-backMarkers
686.696321	0.000000	3-back	4970.145917	Steps:3 KeyPress:True Matched:False	0	3	true	false	Wrong	false	n/a	n-backMarkers
687.838204	0.004000	dropped_samples	4971.287800	Dropped 1 samples	n/a	n/a	n/a	n/a	n/a	n/a	1	UoHDataOffsetStream
688.397557	0.000000	3-back	4971.847153	Steps:3 KeyPress:False Matched:False	1	3	false	false	Correct	false	n/a	n-backMarkers
690.098915	0.000000	3-back	4973.548512	Steps:3 KeyPress:False Matched:False	1	3	false	false	Correct	false	n/a	n-backMarkers
691.632126	0.008000	dropped_samples	4975.081723	Dropped 2 samples	n/a	n/a	n/a	n/a	n/a	n/a	2	UoHDataOffsetStream
691.798991	0.000000	3-back	4975.248587	Steps:3 KeyPress:False Matched:False	1	3	false	false	Correct	false	n/a	n-backMarkers
692.926167	0.004000	dropped_samples	4976.375763	Dropped 1 samples	n/a	n/a	n/a	n/a	n/a	n/a	1	UoHDataOffsetStream
693.165375	0.008000	dropped_samples	4976.614972	Dropped 2 samples	n/a	n/a	n/a	n/a	n/a	n/a	2	UoHDataOffsetStream
693.500253	0.000000	3-back	4976.949849	Steps:3 KeyPress:True Matched:False	0	3	true	false	Wrong	false	n/a	n-backMarkers
694.176085	0.008000	dropped_samples	4977.625681	Dropped 2 samples	n/a	n/a	n/a	n/a	n/a	n/a	2	UoHDataOffsetStream
695.201362	0.000000	3-back	4978.650959	Steps:3 KeyPress:False Matched:False	1	3	false	false	Correct	false	n/a	n-backMarkers
696.902232	0.000000	3-back	4980.351829	Steps:3 KeyPress:False Matched:False	1	3	false	false	Correct	false	n/a	n-backMarkers
698.603282	0.000000	3-back	4982.052879	Steps:3 KeyPress:False Matched:False	1	3	false	false	Correct	false	n/a	n-backMarkers
699.839895	0.004000	dropped_samples	4983.289491	Dropped 1 samples	n/a	n/a	n/a	n/a	n/a	n/a	1	UoHDataOffsetStream
700.303351	0.000000	3-back	4983.752948	Steps:3 KeyPress:True Matched:False	0	3	true	false	Wrong	false	n/a	n-backMarkers
702.004156	0.000000	3-back	4985.453752	Steps:3 KeyPress:False Matched:False	1	3	false	false	Correct	false	n/a	n-backMarkers
703.705184	0.000000	3-back	4987.154781	Steps:3 KeyPress:False Matched:False	1	3	false	false	Correct	false	n/a	n-backMarkers
705.407172	0.000000	3-back	4988.856768	Steps:3 KeyPress:False Matched:False	1	3	false	false	Correct	false	n/a	n-backMarkers
707.108225	0.000000	3-back	4990.557822	Steps:3 KeyPress:False Matched:False	1	3	false	false	Correct	false	n/a	n-backMarkers
708.809300	0.000000	3-back	4992.258896	Steps:3 KeyPress:True Matched:False	0	3	true	false	Wrong	false	n/a	n-backMarkers
710.511220	0.000000	3-back	4993.960816	Steps:3 KeyPress:False Matched:True	0	3	false	true	Wrong	false	n/a	n-backMarkers
711.837048	0.004000	dropped_samples	4995.286644	Dropped 1 samples	n/a	n/a	n/a	n/a	n/a	n/a	1	UoHDataOffsetStream
712.212326	0.000000	3-back	4995.661923	Steps:3 KeyPress:False Matched:False	1	3	false	false	Correct	false	n/a	n-backMarkers
713.912524	0.000000	3-back	4997.362120	Steps:3 KeyPress:False Matched:False	1	3	false	false	Correct	false	n/a	n-backMarkers
715.614251	0.000000	3-back	4999.063848	Steps:3 KeyPress:False Matched:False	1	3	false	false	Correct	false	n/a	n-backMarkers
717.314417	0.000000	3-back	5000.764014	Steps:3 KeyPress:False Matched:False	1	3	false	false	Correct	false	n/a	n-backMarkers
719.016164	0.000000	3-back	5002.465760	Steps:3 KeyPress:True Matched:False	0	3	true	false	Wrong	false	n/a	n-backMarkers
719.762050	0.008000	dropped_samples	5003.211646	Dropped 2 samples	n/a	n/a	n/a	n/a	n/a	n/a	2	UoHDataOffsetStream
720.716537	0.000000	3-back	5004.166133	Steps:3 KeyPress:False Matched:False	1	3	false	false	Correct	false	n/a	n-backMarkers
722.418574	0.000000	3-back	5005.868170	Steps:3 KeyPress:False Matched:False	1	3	false	false	Correct	false	n/a	n-backMarkers
724.120166	0.000000	3-back	5007.569762	Steps:3 KeyPress:False Matched:False	1	3	false	false	Correct	false	n/a	n-backMarkers
724.703451	0.012000	dropped_samples	5008.153048	Dropped 3 samples	n/a	n/a	n/a	n/a	n/a	n/a	3	UoHDataOffsetStream
725.040399	0.008000	dropped_samples	5008.489995	Dropped 2 samples	n/a	n/a	n/a	n/a	n/a	n/a	2	UoHDataOffsetStream
725.820359	0.000000	3-back	5009.269955	Steps:3 KeyPress:True Matched:False	0	3	true	false	Wrong	false	n/a	n-backMarkers
727.521384	0.000000	3-back	5010.970980	Steps:3 KeyPress:False Matched:True	0	3	false	true	Wrong	false	n/a	n-backMarkers
728.541229	0.012000	dropped_samples	5011.990825	Dropped 3 samples	n/a	n/a	n/a	n/a	n/a	n/a	3	UoHDataOffsetStream
729.223532	0.000000	3-back	5012.673128	Steps:3 KeyPress:False Matched:False	1	3	false	false	Correct	false	n/a	n-backMarkers
730.925100	0.000000	3-back	5014.374697	Steps:3 KeyPress:False Matched:False	1	3	false	false	Correct	false	n/a	n-backMarkers
731.519699	0.004000	dropped_samples	5014.969296	Dropped 1 samples	n/a	n/a	n/a	n/a	n/a	n/a	1	UoHDataOffsetStream
732.626092	0.000000	3-back	5016.075688	Steps:3 KeyPress:False Matched:True	0	3	false	true	Wrong	false	n/a	n-backMarkers
734.327092	0.000000	3-back	5017.776689	Steps:3 KeyPress:False Matched:False	1	3	false	false	Correct	false	n/a	n-backMarkers
734.737681	0.004000	dropped_samples	5018.187278	Dropped 1 samples	n/a	n/a	n/a	n/a	n/a	n/a	1	UoHDataOffsetStream
736.027681	0.000000	3-back	5019.477277	Steps:3 KeyPress:False Matched:False	1	3	false	false	Correct	false	n/a	n-backMarkers
737.728049	0.000000	3-back	5021.177645	Steps:3 KeyPress:False Matched:False	1	3	false	false	Correct	false	n/a	n-backMarkers
