onset	duration	trial_type	timestamp_lsl	marker	response_accuracy	difficulty_range	nback_n	keypress	matched	outcome	istutorial	dropped_samples	marker_stream
1.395490	0.004000	dropped_samples	3727.915133	Dropped 1 samples	n/a	n/a	n/a	n/a	n/a	n/a	n/a	1	UoHDataOffsetStream
3.368226	0.004000	dropped_samples	3729.887870	Dropped 1 samples	n/a	n/a	n/a	n/a	n/a	n/a	n/a	1	UoHDataOffsetStream
3.988320	0.012000	dropped_samples	3730.507963	Dropped 3 samples	n/a	n/a	n/a	n/a	n/a	n/a	n/a	3	UoHDataOffsetStream
8.285166	0.004000	dropped_samples	3734.804809	Dropped 1 samples	n/a	n/a	n/a	n/a	n/a	n/a	n/a	1	UoHDataOffsetStream
9.774426	0.004000	dropped_samples	3736.294069	Dropped 1 samples	n/a	n/a	n/a	n/a	n/a	n/a	n/a	1	UoHDataOffsetStream
11.478557	0.008000	dropped_samples	3737.998200	Dropped 2 samples	n/a	n/a	n/a	n/a	n/a	n/a	n/a	2	UoHDataOffsetStream
15.003951	0.004000	dropped_samples	3741.523594	Dropped 1 samples	n/a	n/a	n/a	n/a	n/a	n/a	n/a	1	UoHDataOffsetStream
17.020543	0.012000	dropped_samples	3743.540186	Dropped 3 samples	n/a	n/a	n/a	n/a	n/a	n/a	n/a	3	UoHDataOffsetStream
18.387746	0.004000	dropped_samples	3744.907389	Dropped 1 samples	n/a	n/a	n/a	n/a	n/a	n/a	n/a	1	UoHDataOffsetStream
18.988300	0.004000	dropped_samples	3745.507943	Dropped 1 samples	n/a	n/a	n/a	n/a	n/a	n/a	n/a	1	UoHDataOffsetStream
27.704437	0.004000	dropped_samples	3754.224081	Dropped 1 samples	n/a	n/a	n/a	n/a	n/a	n/a	n/a	1	UoHDataOffsetStream
31.014752	0.004000	dropped_samples	3757.534395	Dropped 1 samples	n/a	n/a	n/a	n/a	n/a	n/a	n/a	1	UoHDataOffsetStream
31.376108	0.008000	dropped_samples	3757.895751	Dropped 2 samples	n/a	n/a	n/a	n/a	n/a	n/a	n/a	2	UoHDataOffsetStream
36.366358	0.012000	dropped_samples	3762.886001	Dropped 3 samples	n/a	n/a	n/a	n/a	n/a	n/a	n/a	3	UoHDataOffsetStream
37.757921	0.004000	dropped_samples	3764.277564	Dropped 1 samples	n/a	n/a	n/a	n/a	n/a	n/a	n/a	1	UoHDataOffsetStream
45.004098	0.012000	dropped_samples	3771.523741	Dropped 3 samples	n/a	n/a	n/a	n/a	n/a	n/a	n/a	3	UoHDataOffsetStream
48.368339	0.012000	dropped_samples	3774.887982	Dropped 3 samples	n/a	n/a	n/a	n/a	n/a	n/a	n/a	3	UoHDataOffsetStream
49.134933	0.004000	dropped_samples	3775.654576	Dropped 1 samples	n/a	n/a	n/a	n/a	n/a	n/a	n/a	1	UoHDataOffsetStream
49.686702	0.012000	dropped_samples	3776.206346	Dropped 3 samples	n/a	n/a	n/a	n/a	n/a	n/a	n/a	3	UoHDataOffsetStream
50.036051	0.000000	started_tutorial_n-back	3776.555694	Started tutorial n-back	n/a	n/a	n/a	n/a	n/a	n/a	n/a	n/a	n-backMarkers
50.453301	0.004000	dropped_samples	3776.972944	Dropped 1 samples	n/a	n/a	n/a	n/a	n/a	n/a	n/a	1	UoHDataOffsetStream
51.293149	0.004000	dropped_samples	3777.812792	Dropped 1 samples	n/a	n/a	n/a	n/a	n/a	n/a	n/a	1	UoHDataOffsetStream
51.390818	0.004000	dropped_samples	3777.910461	Dropped 1 samples	n/a	n/a	n/a	n/a	n/a	n/a	n/a	1	UoHDataOffsetStream
51.630027	0.016000	dropped_samples	3778.149670	Dropped 4 samples	n/a	n/a	n/a	n/a	n/a	n/a	n/a	4	UoHDataOffsetStream
54.345010	0.004000	dropped_samples	3780.864654	Dropped 1 samples	n/a	n/a	n/a	n/a	n/a	n/a	n/a	1	UoHDataOffsetStream
54.750191	0.004000	dropped_samples	3781.269834	Dropped 1 samples	n/a	n/a	n/a	n/a	n/a	n/a	n/a	1	UoHDataOffsetStream
55.173131	0.004000	dropped_samples	3781.692774	Dropped 1 samples	n/a	n/a	n/a	n/a	n/a	n/a	n/a	1	UoHDataOffsetStream
58.470939	0.012000	dropped_samples	3784.990582	Dropped 3 samples	n/a	n/a	n/a	n/a	n/a	n/a	n/a	3	UoHDataOffsetStream
59.960384	0.012000	dropped_samples	3786.480027	Dropped 3 samples	n/a	n/a	n/a	n/a	n/a	n/a	n/a	3	UoHDataOffsetStream
61.615415	0.004000	dropped_samples	3788.135058	Dropped 1 samples	n/a	n/a	n/a	n/a	n/a	n/a	n/a	1	UoHDataOffsetStream
63.197491	0.004000	dropped_samples	3789.717134	Dropped 1 samples	n/a	n/a	n/a	n/a	n/a	n/a	n/a	1	UoHDataOffsetStream
64.637918	0.012000	dropped_samples	3791.157561	Dropped 3 samples	n/a	n/a	n/a	n/a	n/a	n/a	n/a	3	UoHDataOffsetStream
67.181907	0.004000	dropped_samples	3793.701551	Dropped 1 samples	n/a	n/a	n/a	n/a	n/a	n/a	n/a	1	UoHDataOffsetStream
67.709349	0.004000	dropped_samples	3794.228992	Dropped 1 samples	n/a	n/a	n/a	n/a	n/a	n/a	n/a	1	UoHDataOffsetStream
70.399667	0.004000	dropped_samples	3796.919310	Dropped 1 samples	n/a	n/a	n/a	n/a	n/a	n/a	n/a	1	UoHDataOffsetStream
72.431520	0.016000	dropped_samples	3798.951163	Dropped 4 samples	n/a	n/a	n/a	n/a	n/a	n/a	n/a	4	UoHDataOffsetStream
72.465098	0.012000	dropped_samples	3798.984742	Dropped 3 samples	n/a	n/a	n/a	n/a	n/a	n/a	n/a	3	UoHDataOffsetStream
72.631193	0.012000	dropped_samples	3799.150836	Dropped 3 samples	n/a	n/a	n/a	n/a	n/a	n/a	n/a	3	UoHDataOffsetStream
73.685820	0.008000	dropped_samples	3800.205463	Dropped 2 samples	n/a	n/a	n/a	n/a	n/a	n/a	n/a	2	UoHDataOffsetStream
74.838154	0.004000	dropped_samples	3801.357797	Dropped 1 samples	n/a	n/a	n/a	n/a	n/a	n/a	n/a	1	UoHDataOffsetStream
75.028704	0.012000	dropped_samples	3801.548348	Dropped 3 samples	n/a	n/a	n/a	n/a	n/a	n/a	n/a	3	UoHDataOffsetStream
76.229834	0.012000	dropped_samples	3802.749477	Dropped 3 samples	n/a	n/a	n/a	n/a	n/a	n/a	n/a	3	UoHDataOffsetStream
77.240511	0.004000	dropped_samples	3803.760154	Dropped 1 samples	n/a	n/a	n/a	n/a	n/a	n/a	n/a	1	UoHDataOffsetStream
79.086190	0.004000	dropped_samples	3805.605833	Dropped 1 samples	n/a	n/a	n/a	n/a	n/a	n/a	n/a	1	UoHDataOffsetStream
81.029713	0.012000	dropped_samples	3807.549356	Dropped 3 samples	n/a	n/a	n/a	n/a	n/a	n/a	n/a	3	UoHDataOffsetStream
81.224918	0.004000	dropped_samples	3807.744561	Dropped 1 samples	n/a	n/a	n/a	n/a	n/a	n/a	n/a	1	UoHDataOffsetStream
83.309928	0.004000	dropped_samples	3809.829572	Dropped 1 samples	n/a	n/a	n/a	n/a	n/a	n/a	n/a	1	UoHDataOffsetStream
84.364568	0.004000	dropped_samples	3810.884211	Dropped 1 samples	n/a	n/a	n/a	n/a	n/a	n/a	n/a	1	UoHDataOffsetStream
85.424144	0.012000	dropped_samples	3811.943787	Dropped 3 samples	n/a	n/a	n/a	n/a	n/a	n/a	n/a	3	UoHDataOffsetStream
85.565734	0.008000	dropped_samples	3812.085377	Dropped 2 samples	n/a	n/a	n/a	n/a	n/a	n/a	n/a	2	UoHDataOffsetStream
88.519821	0.012000	dropped_samples	3815.039464	Dropped 3 samples	n/a	n/a	n/a	n/a	n/a	n/a	n/a	3	UoHDataOffsetStream
89.935817	0.012000	dropped_samples	3816.455460	Dropped 3 samples	n/a	n/a	n/a	n/a	n/a	n/a	n/a	3	UoHDataOffsetStream
90.028678	0.004000	dropped_samples	3816.548321	Dropped 1 samples	n/a	n/a	n/a	n/a	n/a	n/a	n/a	1	UoHDataOffsetStream
90.629288	0.012000	dropped_samples	3817.148931	Dropped 3 samples	n/a	n/a	n/a	n/a	n/a	n/a	n/a	3	UoHDataOffsetStream
91.278639	0.012000	dropped_samples	3817.798282	Dropped 3 samples	n/a	n/a	n/a	n/a	n/a	n/a	n/a	3	UoHDataOffsetStream
91.469083	0.008000	dropped_samples	3817.988726	Dropped 2 samples	n/a	n/a	n/a	n/a	n/a	n/a	n/a	2	UoHDataOffsetStream
92.515218	0.004000	dropped_samples	3819.034861	Dropped 1 samples	n/a	n/a	n/a	n/a	n/a	n/a	n/a	1	UoHDataOffsetStream
92.553056	0.020000	dropped_samples	3819.072699	Dropped 5 samples	n/a	n/a	n/a	n/a	n/a	n/a	n/a	5	UoHDataOffsetStream
93.510106	0.012000	dropped_samples	3820.029749	Dropped 3 samples	n/a	n/a	n/a	n/a	n/a	n/a	n/a	3	UoHDataOffsetStream
94.013091	0.004000	dropped_samples	3820.532735	Dropped 1 samples	n/a	n/a	n/a	n/a	n/a	n/a	n/a	1	UoHDataOffsetStream
94.950508	0.008000	dropped_samples	3821.470151	Dropped 2 samples	n/a	n/a	n/a	n/a	n/a	n/a	n/a	2	UoHDataOffsetStream
101.166369	0.004000	dropped_samples	3827.686012	Dropped 1 samples	n/a	n/a	n/a	n/a	n/a	n/a	n/a	1	UoHDataOffsetStream
101.576571	0.012000	dropped_samples	3828.096215	Dropped 3 samples	n/a	n/a	n/a	n/a	n/a	n/a	n/a	3	UoHDataOffsetStream
107.308982	0.008000	dropped_samples	3833.828625	Dropped 2 samples	n/a	n/a	n/a	n/a	n/a	n/a	n/a	2	UoHDataOffsetStream
110.023835	0.004000	dropped_samples	3836.543478	Dropped 1 samples	n/a	n/a	n/a	n/a	n/a	n/a	n/a	1	UoHDataOffsetStream
112.339006	0.004000	dropped_samples	3838.858649	Dropped 1 samples	n/a	n/a	n/a	n/a	n/a	n/a	n/a	1	UoHDataOffsetStream
112.372520	0.004000	dropped_samples	3838.892163	Dropped 1 samples	n/a	n/a	n/a	n/a	n/a	n/a	n/a	1	UoHDataOffsetStream
112.665474	0.024000	dropped_samples	3839.185117	Dropped 6 samples	n/a	n/a	n/a	n/a	n/a	n/a	n/a	6	UoHDataOffsetStream
112.807069	0.012000	dropped_samples	3839.326712	Dropped 3 samples	n/a	n/a	n/a	n/a	n/a	n/a	n/a	3	UoHDataOffsetStream
113.983782	0.012000	dropped_samples	3840.503425	Dropped 3 samples	n/a	n/a	n/a	n/a	n/a	n/a	n/a	3	UoHDataOffsetStream
116.381279	0.004000	dropped_samples	3842.900922	Dropped 1 samples	n/a	n/a	n/a	n/a	n/a	n/a	n/a	1	UoHDataOffsetStream
117.062016	1.701006	nback_1	3843.581659	Steps:1 KeyPress:False Matched:False	1	n/a	1	False	False	n/a	n/a	n/a	n-backMarkers
117.440831	0.012000	dropped_samples	3843.960474	Dropped 3 samples	n/a	n/a	n/a	n/a	n/a	n/a	n/a	3	UoHDataOffsetStream
117.777815	0.012000	dropped_samples	3844.297458	Dropped 3 samples	n/a	n/a	n/a	n/a	n/a	n/a	n/a	3	UoHDataOffsetStream
118.761855	1.701006	nback_1	3845.281498	Steps:1 KeyPress:True Matched:False	0	n/a	1	True	False	n/a	n/a	n/a	n-backMarkers
120.463468	1.701006	nback_1	3846.983111	Steps:1 KeyPress:False Matched:True	0	n/a	1	False	True	n/a	n/a	n/a	n-backMarkers
122.164777	1.701006	nback_1	3848.684420	Steps:1 KeyPress:False Matched:False	1	n/a	1	False	False	n/a	n/a	n/a	n-backMarkers
123.129370	0.012000	dropped_samples	3849.649013	Dropped 3 samples	n/a	n/a	n/a	n/a	n/a	n/a	n/a	3	UoHDataOffsetStream
123.864862	1.701006	nback_1	3850.384505	Steps:1 KeyPress:True Matched:False	0	n/a	1	True	False	n/a	n/a	n/a	n-backMarkers
125.564941	1.701006	nback_1	3852.084584	Steps:1 KeyPress:False Matched:True	0	n/a	1	False	True	n/a	n/a	n/a	n-backMarkers
125.697708	0.004000	dropped_samples	3852.217351	Dropped 1 samples	n/a	n/a	n/a	n/a	n/a	n/a	n/a	1	UoHDataOffsetStream
126.249509	0.004000	dropped_samples	3852.769152	Dropped 1 samples	n/a	n/a	n/a	n/a	n/a	n/a	n/a	1	UoHDataOffsetStream
127.266831	1.701006	nback_1	3853.786474	Steps:1 KeyPress:False Matched:True	0	n/a	1	False	True	n/a	n/a	n/a	n-backMarkers
128.021968	0.012000	dropped_samples	3854.541611	Dropped 3 samples	n/a	n/a	n/a	n/a	n/a	n/a	n/a	3	UoHDataOffsetStream
128.967773	1.701006	nback_1	3855.487416	Steps:1 KeyPress:False Matched:False	1	n/a	1	False	False	n/a	n/a	n/a	n-backMarkers
130.667844	1.701006	nback_1	3857.187487	Steps:1 KeyPress:False Matched:False	1	n/a	1	False	False	n/a	n/a	n/a	n-backMarkers
130.805164	0.012000	dropped_samples	3857.324807	Dropped 3 samples	n/a	n/a	n/a	n/a	n/a	n/a	n/a	3	UoHDataOffsetStream
131.430162	0.004000	dropped_samples	3857.949805	Dropped 1 samples	n/a	n/a	n/a	n/a	n/a	n/a	n/a	1	UoHDataOffsetStream
131.864715	0.004000	dropped_samples	3858.384358	Dropped 1 samples	n/a	n/a	n/a	n/a	n/a	n/a	n/a	1	UoHDataOffsetStream
132.318903	0.016000	dropped_samples	3858.838546	Dropped 4 samples	n/a	n/a	n/a	n/a	n/a	n/a	n/a	4	UoHDataOffsetStream
132.367963	1.701006	nback_1	3858.887606	Steps:1 KeyPress:True Matched:False	0	n/a	1	True	False	n/a	n/a	n/a	n-backMarkers
133.183293	0.004000	dropped_samples	3859.702936	Dropped 1 samples	n/a	n/a	n/a	n/a	n/a	n/a	n/a	1	UoHDataOffsetStream
134.068909	1.701006	nback_1	3860.588552	Steps:1 KeyPress:False Matched:True	0	n/a	1	False	True	n/a	n/a	n/a	n-backMarkers
135.768886	1.701006	nback_1	3862.288529	Steps:1 KeyPress:False Matched:True	0	n/a	1	False	True	n/a	n/a	n/a	n-backMarkers
136.713529	0.012000	dropped_samples	3863.233172	Dropped 3 samples	n/a	n/a	n/a	n/a	n/a	n/a	n/a	3	UoHDataOffsetStream
137.471035	1.701006	nback_1	3863.990678	Steps:1 KeyPress:False Matched:False	1	n/a	1	False	False	n/a	n/a	n/a	n-backMarkers
138.847171	0.004000	dropped_samples	3865.366815	Dropped 1 samples	n/a	n/a	n/a	n/a	n/a	n/a	n/a	1	UoHDataOffsetStream
139.172833	1.701006	nback_1	3865.692476	Steps:1 KeyPress:True Matched:False	0	n/a	1	True	False	n/a	n/a	n/a	n-backMarkers
139.257362	0.012000	dropped_samples	3865.777005	Dropped 3 samples	n/a	n/a	n/a	n/a	n/a	n/a	n/a	3	UoHDataOffsetStream
140.863767	0.008000	dropped_samples	3867.383410	Dropped 2 samples	n/a	n/a	n/a	n/a	n/a	n/a	n/a	2	UoHDataOffsetStream
140.874520	1.701006	nback_1	3867.394163	Steps:1 KeyPress:False Matched:False	1	n/a	1	False	False	n/a	n/a	n/a	n-backMarkers
142.575537	1.701006	nback_1	3869.095180	Steps:1 KeyPress:True Matched:False	0	n/a	1	True	False	n/a	n/a	n/a	n-backMarkers
142.665572	0.004000	dropped_samples	3869.185215	Dropped 1 samples	n/a	n/a	n/a	n/a	n/a	n/a	n/a	1	UoHDataOffsetStream
144.276685	1.701006	nback_1	3870.796329	Steps:1 KeyPress:False Matched:False	1	n/a	1	False	False	n/a	n/a	n/a	n-backMarkers
145.351193	0.004000	dropped_samples	3871.870836	Dropped 1 samples	n/a	n/a	n/a	n/a	n/a	n/a	n/a	1	UoHDataOffsetStream
145.978271	1.701006	nback_1	3872.497914	Steps:1 KeyPress:True Matched:False	0	n/a	1	True	False	n/a	n/a	n/a	n-backMarkers
146.938040	0.004000	dropped_samples	3873.457684	Dropped 1 samples	n/a	n/a	n/a	n/a	n/a	n/a	n/a	1	UoHDataOffsetStream
147.177301	0.004000	dropped_samples	3873.696944	Dropped 1 samples	n/a	n/a	n/a	n/a	n/a	n/a	n/a	1	UoHDataOffsetStream
147.678883	1.701006	nback_1	3874.198526	Steps:1 KeyPress:False Matched:True	0	n/a	1	False	True	n/a	n/a	n/a	n-backMarkers
147.895100	0.012000	dropped_samples	3874.414743	Dropped 3 samples	n/a	n/a	n/a	n/a	n/a	n/a	n/a	3	UoHDataOffsetStream
149.380925	1.701006	nback_1	3875.900568	Steps:1 KeyPress:False Matched:False	1	n/a	1	False	False	n/a	n/a	n/a	n-backMarkers
150.678280	0.012000	dropped_samples	3877.197923	Dropped 3 samples	n/a	n/a	n/a	n/a	n/a	n/a	n/a	3	UoHDataOffsetStream
151.082247	1.701006	nback_1	3877.601890	Steps:1 KeyPress:True Matched:False	0	n/a	1	True	False	n/a	n/a	n/a	n-backMarkers
152.602127	0.016000	dropped_samples	3879.121770	Dropped 4 samples	n/a	n/a	n/a	n/a	n/a	n/a	n/a	4	UoHDataOffsetStream
153.730087	0.012000	dropped_samples	3880.249730	Dropped 3 samples	n/a	n/a	n/a	n/a	n/a	n/a	n/a	3	UoHDataOffsetStream
156.513294	0.012000	dropped_samples	3883.032937	Dropped 3 samples	n/a	n/a	n/a	n/a	n/a	n/a	n/a	3	UoHDataOffsetStream
156.918543	0.012000	dropped_samples	3883.438186	Dropped 3 samples	n/a	n/a	n/a	n/a	n/a	n/a	n/a	3	UoHDataOffsetStream
158.817973	0.004000	dropped_samples	3885.337617	Dropped 1 samples	n/a	n/a	n/a	n/a	n/a	n/a	n/a	1	UoHDataOffsetStream
159.394149	0.012000	dropped_samples	3885.913792	Dropped 3 samples	n/a	n/a	n/a	n/a	n/a	n/a	n/a	3	UoHDataOffsetStream
159.486950	0.004000	dropped_samples	3886.006593	Dropped 1 samples	n/a	n/a	n/a	n/a	n/a	n/a	n/a	1	UoHDataOffsetStream
159.779793	1.701006	nback_2	3886.299436	Steps:2 KeyPress:False Matched:False	1	n/a	2	False	False	n/a	n/a	n/a	n-backMarkers
161.479861	1.701006	nback_2	3887.999504	Steps:2 KeyPress:False Matched:False	1	n/a	2	False	False	n/a	n/a	n/a	n-backMarkers
161.840460	0.012000	dropped_samples	3888.360103	Dropped 3 samples	n/a	n/a	n/a	n/a	n/a	n/a	n/a	3	UoHDataOffsetStream
162.943914	0.004000	dropped_samples	3889.463557	Dropped 1 samples	n/a	n/a	n/a	n/a	n/a	n/a	n/a	1	UoHDataOffsetStream
163.181015	1.701006	nback_2	3889.700658	Steps:2 KeyPress:False Matched:False	1	n/a	2	False	False	n/a	n/a	n/a	n-backMarkers
163.710552	0.004000	dropped_samples	3890.230195	Dropped 1 samples	n/a	n/a	n/a	n/a	n/a	n/a	n/a	1	UoHDataOffsetStream
164.023034	0.004000	dropped_samples	3890.542677	Dropped 1 samples	n/a	n/a	n/a	n/a	n/a	n/a	n/a	1	UoHDataOffsetStream
164.882903	1.701006	nback_2	3891.402546	Steps:2 KeyPress:False Matched:False	1	n/a	2	False	False	n/a	n/a	n/a	n-backMarkers
166.584909	1.701006	nback_2	3893.104552	Steps:2 KeyPress:True Matched:False	0	n/a	2	True	False	n/a	n/a	n/a	n-backMarkers
167.646111	0.008000	dropped_samples	3894.165754	Dropped 2 samples	n/a	n/a	n/a	n/a	n/a	n/a	n/a	2	UoHDataOffsetStream
168.285311	1.701006	nback_2	3894.804954	Steps:2 KeyPress:False Matched:False	1	n/a	2	False	False	n/a	n/a	n/a	n-backMarkers
168.944954	0.012000	dropped_samples	3895.464597	Dropped 3 samples	n/a	n/a	n/a	n/a	n/a	n/a	n/a	3	UoHDataOffsetStream
169.208636	0.012000	dropped_samples	3895.728279	Dropped 3 samples	n/a	n/a	n/a	n/a	n/a	n/a	n/a	3	UoHDataOffsetStream
169.986124	1.701006	nback_2	3896.505767	Steps:2 KeyPress:False Matched:False	1	n/a	2	False	False	n/a	n/a	n/a	n-backMarkers
171.687336	1.701006	nback_2	3898.206979	Steps:2 KeyPress:True Matched:False	0	n/a	2	True	False	n/a	n/a	n/a	n-backMarkers
172.470346	0.004000	dropped_samples	3898.989989	Dropped 1 samples	n/a	n/a	n/a	n/a	n/a	n/a	n/a	1	UoHDataOffsetStream
172.782879	0.024000	dropped_samples	3899.302522	Dropped 6 samples	n/a	n/a	n/a	n/a	n/a	n/a	n/a	6	UoHDataOffsetStream
173.387781	1.701006	nback_2	3899.907425	Steps:2 KeyPress:False Matched:True	0	n/a	2	False	True	n/a	n/a	n/a	n-backMarkers
173.769218	0.004000	dropped_samples	3900.288861	Dropped 1 samples	n/a	n/a	n/a	n/a	n/a	n/a	n/a	1	UoHDataOffsetStream
175.088793	1.701006	nback_2	3901.608436	Steps:2 KeyPress:False Matched:False	1	n/a	2	False	False	n/a	n/a	n/a	n-backMarkers
175.834651	0.004000	dropped_samples	3902.354294	Dropped 1 samples	n/a	n/a	n/a	n/a	n/a	n/a	n/a	1	UoHDataOffsetStream
176.790018	1.701006	nback_2	3903.309661	Steps:2 KeyPress:False Matched:True	0	n/a	2	False	True	n/a	n/a	n/a	n-backMarkers
178.491921	1.701006	nback_2	3905.011564	Steps:2 KeyPress:False Matched:False	1	n/a	2	False	False	n/a	n/a	n/a	n-backMarkers
179.672586	0.004000	dropped_samples	3906.192229	Dropped 1 samples	n/a	n/a	n/a	n/a	n/a	n/a	n/a	1	UoHDataOffsetStream
180.192956	1.701006	nback_2	3906.712599	Steps:2 KeyPress:False Matched:False	1	n/a	2	False	False	n/a	n/a	n/a	n-backMarkers
180.248732	0.012000	dropped_samples	3906.768375	Dropped 3 samples	n/a	n/a	n/a	n/a	n/a	n/a	n/a	3	UoHDataOffsetStream
181.112983	0.004000	dropped_samples	3907.632626	Dropped 1 samples	n/a	n/a	n/a	n/a	n/a	n/a	n/a	1	UoHDataOffsetStream
181.895834	1.701006	nback_2	3908.415477	Steps:2 KeyPress:False Matched:False	1	n/a	2	False	False	n/a	n/a	n/a	n-backMarkers
181.928419	0.004000	dropped_samples	3908.448062	Dropped 1 samples	n/a	n/a	n/a	n/a	n/a	n/a	n/a	1	UoHDataOffsetStream
183.598002	1.701006	nback_2	3910.117645	Steps:2 KeyPress:True Matched:False	0	n/a	2	True	False	n/a	n/a	n/a	n-backMarkers
183.969491	0.004000	dropped_samples	3910.489134	Dropped 1 samples	n/a	n/a	n/a	n/a	n/a	n/a	n/a	1	UoHDataOffsetStream
185.299710	1.701006	nback_2	3911.819353	Steps:2 KeyPress:False Matched:False	1	n/a	2	False	False	n/a	n/a	n/a	n-backMarkers
185.551437	0.012000	dropped_samples	3912.071080	Dropped 3 samples	n/a	n/a	n/a	n/a	n/a	n/a	n/a	3	UoHDataOffsetStream
186.298528	0.012000	dropped_samples	3912.818171	Dropped 3 samples	n/a	n/a	n/a	n/a	n/a	n/a	n/a	3	UoHDataOffsetStream
187.001492	1.701006	nback_2	3913.521135	Steps:2 KeyPress:False Matched:False	1	n/a	2	False	False	n/a	n/a	n/a	n-backMarkers
188.046587	0.004000	dropped_samples	3914.566230	Dropped 1 samples	n/a	n/a	n/a	n/a	n/a	n/a	n/a	1	UoHDataOffsetStream
188.703535	1.701006	nback_2	3915.223178	Steps:2 KeyPress:True Matched:False	0	n/a	2	True	False	n/a	n/a	n/a	n-backMarkers
189.081742	0.012000	dropped_samples	3915.601385	Dropped 3 samples	n/a	n/a	n/a	n/a	n/a	n/a	n/a	3	UoHDataOffsetStream
189.585030	0.004000	dropped_samples	3916.104673	Dropped 1 samples	n/a	n/a	n/a	n/a	n/a	n/a	n/a	1	UoHDataOffsetStream
190.404292	1.701006	nback_2	3916.923935	Steps:2 KeyPress:False Matched:True	0	n/a	2	False	True	n/a	n/a	n/a	n-backMarkers
192.034007	0.004000	dropped_samples	3918.553650	Dropped 1 samples	n/a	n/a	n/a	n/a	n/a	n/a	n/a	1	UoHDataOffsetStream
192.104452	0.008000	dropped_samples	3918.624095	Dropped 2 samples	n/a	n/a	n/a	n/a	n/a	n/a	n/a	2	UoHDataOffsetStream
192.106291	1.701006	nback_2	3918.625934	Steps:2 KeyPress:True Matched:False	0	n/a	2	True	False	n/a	n/a	n/a	n-backMarkers
192.514402	0.012000	dropped_samples	3919.034045	Dropped 3 samples	n/a	n/a	n/a	n/a	n/a	n/a	n/a	3	UoHDataOffsetStream
193.447040	0.004000	dropped_samples	3919.966683	Dropped 1 samples	n/a	n/a	n/a	n/a	n/a	n/a	n/a	1	UoHDataOffsetStream
195.702888	0.008000	dropped_samples	3922.222531	Dropped 2 samples	n/a	n/a	n/a	n/a	n/a	n/a	n/a	2	UoHDataOffsetStream
198.007528	0.004000	dropped_samples	3924.527171	Dropped 1 samples	n/a	n/a	n/a	n/a	n/a	n/a	n/a	1	UoHDataOffsetStream
198.681406	0.008000	dropped_samples	3925.201049	Dropped 2 samples	n/a	n/a	n/a	n/a	n/a	n/a	n/a	2	UoHDataOffsetStream
199.086688	0.004000	dropped_samples	3925.606331	Dropped 1 samples	n/a	n/a	n/a	n/a	n/a	n/a	n/a	1	UoHDataOffsetStream
199.399173	0.012000	dropped_samples	3925.918816	Dropped 3 samples	n/a	n/a	n/a	n/a	n/a	n/a	n/a	3	UoHDataOffsetStream
200.815051	1.701006	nback_3	3927.334694	Steps:3 KeyPress:False Matched:False	1	n/a	3	False	False	n/a	n/a	n/a	n-backMarkers
202.065239	0.008000	dropped_samples	3928.584882	Dropped 2 samples	n/a	n/a	n/a	n/a	n/a	n/a	n/a	2	UoHDataOffsetStream
202.517680	1.701006	nback_3	3929.037323	Steps:3 KeyPress:False Matched:False	1	n/a	3	False	False	n/a	n/a	n/a	n-backMarkers
204.219794	1.701006	nback_3	3930.739437	Steps:3 KeyPress:False Matched:False	1	n/a	3	False	False	n/a	n/a	n/a	n-backMarkers
205.878695	0.004000	dropped_samples	3932.398339	Dropped 1 samples	n/a	n/a	n/a	n/a	n/a	n/a	n/a	1	UoHDataOffsetStream
205.921172	1.701006	nback_3	3932.440816	Steps:3 KeyPress:True Matched:False	0	n/a	3	True	False	n/a	n/a	n/a	n-backMarkers
207.622756	1.701006	nback_3	3934.142399	Steps:3 KeyPress:False Matched:True	0	n/a	3	False	True	n/a	n/a	n/a	n-backMarkers
208.730468	0.004000	dropped_samples	3935.250111	Dropped 1 samples	n/a	n/a	n/a	n/a	n/a	n/a	n/a	1	UoHDataOffsetStream
209.323580	1.701006	nback_3	3935.843224	Steps:3 KeyPress:False Matched:False	1	n/a	3	False	False	n/a	n/a	n/a	n-backMarkers
211.024867	1.701006	nback_3	3937.544511	Steps:3 KeyPress:False Matched:False	1	n/a	3	False	False	n/a	n/a	n/a	n-backMarkers
211.713666	0.012000	dropped_samples	3938.233309	Dropped 3 samples	n/a	n/a	n/a	n/a	n/a	n/a	n/a	3	UoHDataOffsetStream
212.387518	0.008000	dropped_samples	3938.907161	Dropped 2 samples	n/a	n/a	n/a	n/a	n/a	n/a	n/a	2	UoHDataOffsetStream
212.626823	0.016000	dropped_samples	3939.146466	Dropped 4 samples	n/a	n/a	n/a	n/a	n/a	n/a	n/a	4	UoHDataOffsetStream
212.727764	1.701006	nback_3	3939.247407	Steps:3 KeyPress:False Matched:False	1	n/a	3	False	False	n/a	n/a	n/a	n-backMarkers
213.993941	0.004000	dropped_samples	3940.513584	Dropped 1 samples	n/a	n/a	n/a	n/a	n/a	n/a	n/a	1	UoHDataOffsetStream
214.350606	0.012000	dropped_samples	3940.870249	Dropped 3 samples	n/a	n/a	n/a	n/a	n/a	n/a	n/a	3	UoHDataOffsetStream
214.428716	1.701006	nback_3	3940.948359	Steps:3 KeyPress:False Matched:False	1	n/a	3	False	False	n/a	n/a	n/a	n-backMarkers
216.130790	1.701006	nback_3	3942.650433	Steps:3 KeyPress:False Matched:False	1	n/a	3	False	False	n/a	n/a	n/a	n-backMarkers
216.611412	0.004000	dropped_samples	3943.131055	Dropped 1 samples	n/a	n/a	n/a	n/a	n/a	n/a	n/a	1	UoHDataOffsetStream
217.065268	0.012000	dropped_samples	3943.584911	Dropped 3 samples	n/a	n/a	n/a	n/a	n/a	n/a	n/a	3	UoHDataOffsetStream
217.831817	1.701006	nback_3	3944.351460	Steps:3 KeyPress:True Matched:False	0	n/a	3	True	False	n/a	n/a	n/a	n-backMarkers
218.481565	0.004000	dropped_samples	3945.001208	Dropped 1 samples	n/a	n/a	n/a	n/a	n/a	n/a	n/a	1	UoHDataOffsetStream
219.355665	0.012000	dropped_samples	3945.875308	Dropped 3 samples	n/a	n/a	n/a	n/a	n/a	n/a	n/a	3	UoHDataOffsetStream
219.394373	0.004000	dropped_samples	3945.914017	Dropped 1 samples	n/a	n/a	n/a	n/a	n/a	n/a	n/a	1	UoHDataOffsetStream
219.531990	1.701006	nback_3	3946.051633	Steps:3 KeyPress:False Matched:True	0	n/a	3	False	True	n/a	n/a	n/a	n-backMarkers
221.232803	1.701006	nback_3	3947.752446	Steps:3 KeyPress:False Matched:False	1	n/a	3	False	False	n/a	n/a	n/a	n-backMarkers
222.079934	0.012000	dropped_samples	3948.599577	Dropped 3 samples	n/a	n/a	n/a	n/a	n/a	n/a	n/a	3	UoHDataOffsetStream
222.933652	1.701006	nback_3	3949.453296	Steps:3 KeyPress:False Matched:False	1	n/a	3	False	False	n/a	n/a	n/a	n-backMarkers
224.286995	0.004000	dropped_samples	3950.806638	Dropped 1 samples	n/a	n/a	n/a	n/a	n/a	n/a	n/a	1	UoHDataOffsetStream
224.506688	0.004000	dropped_samples	3951.026331	Dropped 1 samples	n/a	n/a	n/a	n/a	n/a	n/a	n/a	1	UoHDataOffsetStream
224.634869	1.701006	nback_3	3951.154512	Steps:3 KeyPress:False Matched:False	1	n/a	3	False	False	n/a	n/a	n/a	n-backMarkers
224.936396	0.004000	dropped_samples	3951.456039	Dropped 1 samples	n/a	n/a	n/a	n/a	n/a	n/a	n/a	1	UoHDataOffsetStream
226.335706	1.701006	nback_3	3952.855349	Steps:3 KeyPress:True Matched:False	0	n/a	3	True	False	n/a	n/a	n/a	n-backMarkers
228.036278	1.701006	nback_3	3954.555921	Steps:3 KeyPress:False Matched:False	1	n/a	3	False	False	n/a	n/a	n/a	n-backMarkers
229.738595	1.701006	nback_3	3956.258238	Steps:3 KeyPress:False Matched:False	1	n/a	3	False	False	n/a	n/a	n/a	n-backMarkers
231.440551	1.701006	nback_3	3957.960195	Steps:3 KeyPress:False Matched:False	1	n/a	3	False	False	n/a	n/a	n/a	n-backMarkers
232.665909	0.008000	dropped_samples	3959.185553	Dropped 2 samples	n/a	n/a	n/a	n/a	n/a	n/a	n/a	2	UoHDataOffsetStream
233.046775	0.004000	dropped_samples	3959.566418	Dropped 1 samples	n/a	n/a	n/a	n/a	n/a	n/a	n/a	1	UoHDataOffsetStream
233.140888	1.701006	nback_3	3959.660531	Steps:3 KeyPress:True Matched:False	0	n/a	3	True	False	n/a	n/a	n/a	n-backMarkers
238.979416	0.012000	dropped_samples	3965.499059	Dropped 3 samples	n/a	n/a	n/a	n/a	n/a	n/a	n/a	3	UoHDataOffsetStream
241.836897	1.701006	nback_4	3968.356540	Steps:4 KeyPress:False Matched:True	0	n/a	4	False	True	n/a	n/a	n/a	n-backMarkers
242.075106	0.008000	dropped_samples	3968.594749	Dropped 2 samples	n/a	n/a	n/a	n/a	n/a	n/a	n/a	2	UoHDataOffsetStream
243.538220	1.701006	nback_4	3970.057863	Steps:4 KeyPress:False Matched:False	1	n/a	4	False	False	n/a	n/a	n/a	n-backMarkers
244.282182	0.012000	dropped_samples	3970.801825	Dropped 3 samples	n/a	n/a	n/a	n/a	n/a	n/a	n/a	3	UoHDataOffsetStream
245.239236	1.701006	nback_4	3971.758880	Steps:4 KeyPress:False Matched:True	0	n/a	4	False	True	n/a	n/a	n/a	n-backMarkers
246.940346	1.701006	nback_4	3973.459989	Steps:4 KeyPress:False Matched:False	1	n/a	4	False	False	n/a	n/a	n/a	n-backMarkers
247.138632	0.004000	dropped_samples	3973.658275	Dropped 1 samples	n/a	n/a	n/a	n/a	n/a	n/a	n/a	1	UoHDataOffsetStream
248.640438	1.701006	nback_4	3975.160081	Steps:4 KeyPress:False Matched:False	1	n/a	4	False	False	n/a	n/a	n/a	n-backMarkers
249.418923	0.012000	dropped_samples	3975.938566	Dropped 3 samples	n/a	n/a	n/a	n/a	n/a	n/a	n/a	3	UoHDataOffsetStream
249.848807	0.012000	dropped_samples	3976.368450	Dropped 3 samples	n/a	n/a	n/a	n/a	n/a	n/a	n/a	3	UoHDataOffsetStream
250.341265	1.701006	nback_4	3976.860909	Steps:4 KeyPress:False Matched:False	1	n/a	4	False	False	n/a	n/a	n/a	n-backMarkers
250.615208	0.004000	dropped_samples	3977.134851	Dropped 1 samples	n/a	n/a	n/a	n/a	n/a	n/a	n/a	1	UoHDataOffsetStream
251.049845	0.004000	dropped_samples	3977.569488	Dropped 1 samples	n/a	n/a	n/a	n/a	n/a	n/a	n/a	1	UoHDataOffsetStream
252.044957	1.701006	nback_4	3978.564601	Steps:4 KeyPress:False Matched:True	0	n/a	4	False	True	n/a	n/a	n/a	n-backMarkers
252.563448	0.008000	dropped_samples	3979.083091	Dropped 2 samples	n/a	n/a	n/a	n/a	n/a	n/a	n/a	2	UoHDataOffsetStream
252.802698	0.004000	dropped_samples	3979.322341	Dropped 1 samples	n/a	n/a	n/a	n/a	n/a	n/a	n/a	1	UoHDataOffsetStream
253.746069	1.701006	nback_4	3980.265712	Steps:4 KeyPress:False Matched:True	0	n/a	4	False	True	n/a	n/a	n/a	n-backMarkers
254.482399	0.012000	dropped_samples	3981.002042	Dropped 3 samples	n/a	n/a	n/a	n/a	n/a	n/a	n/a	3	UoHDataOffsetStream
254.912074	0.008000	dropped_samples	3981.431717	Dropped 2 samples	n/a	n/a	n/a	n/a	n/a	n/a	n/a	2	UoHDataOffsetStream
255.447863	1.701006	nback_4	3981.967506	Steps:4 KeyPress:False Matched:False	1	n/a	4	False	False	n/a	n/a	n/a	n-backMarkers
255.561502	0.008000	dropped_samples	3982.081145	Dropped 2 samples	n/a	n/a	n/a	n/a	n/a	n/a	n/a	2	UoHDataOffsetStream
257.150178	1.701006	nback_4	3983.669821	Steps:4 KeyPress:False Matched:False	1	n/a	4	False	False	n/a	n/a	n/a	n-backMarkers
257.675791	0.012000	dropped_samples	3984.195434	Dropped 3 samples	n/a	n/a	n/a	n/a	n/a	n/a	n/a	3	UoHDataOffsetStream
258.852762	1.701006	nback_4	3985.372405	Steps:4 KeyPress:False Matched:False	1	n/a	4	False	False	n/a	n/a	n/a	n-backMarkers
260.554235	1.701006	nback_4	3987.073879	Steps:4 KeyPress:True Matched:True	1	n/a	4	True	True	n/a	n/a	n/a	n-backMarkers
262.255854	1.701006	nback_4	3988.775497	Steps:4 KeyPress:False Matched:True	0	n/a	4	False	True	n/a	n/a	n/a	n-backMarkers
263.957027	1.701006	nback_4	3990.476670	Steps:4 KeyPress:False Matched:False	1	n/a	4	False	False	n/a	n/a	n/a	n-backMarkers
264.199227	0.012000	dropped_samples	3990.718870	Dropped 3 samples	n/a	n/a	n/a	n/a	n/a	n/a	n/a	3	UoHDataOffsetStream
265.615242	0.004000	dropped_samples	3992.134886	Dropped 1 samples	n/a	n/a	n/a	n/a	n/a	n/a	n/a	1	UoHDataOffsetStream
265.659946	1.701006	nback_4	3992.179589	Steps:4 KeyPress:False Matched:False	1	n/a	4	False	False	n/a	n/a	n/a	n-backMarkers
266.479513	0.012000	dropped_samples	3992.999156	Dropped 3 samples	n/a	n/a	n/a	n/a	n/a	n/a	n/a	3	UoHDataOffsetStream
267.361950	1.701006	nback_4	3993.881593	Steps:4 KeyPress:True Matched:False	0	n/a	4	True	False	n/a	n/a	n/a	n-backMarkers
267.802830	0.012000	dropped_samples	3994.322473	Dropped 3 samples	n/a	n/a	n/a	n/a	n/a	n/a	n/a	3	UoHDataOffsetStream
269.064736	1.701006	nback_4	3995.584380	Steps:4 KeyPress:False Matched:True	0	n/a	4	False	True	n/a	n/a	n/a	n-backMarkers
270.765730	1.701006	nback_4	3997.285373	Steps:4 KeyPress:False Matched:True	0	n/a	4	False	True	n/a	n/a	n/a	n-backMarkers
272.050828	0.012000	dropped_samples	3998.570471	Dropped 3 samples	n/a	n/a	n/a	n/a	n/a	n/a	n/a	3	UoHDataOffsetStream
272.314497	0.012000	dropped_samples	3998.834140	Dropped 3 samples	n/a	n/a	n/a	n/a	n/a	n/a	n/a	3	UoHDataOffsetStream
272.466778	1.701006	nback_4	3998.986421	Steps:4 KeyPress:False Matched:False	1	n/a	4	False	False	n/a	n/a	n/a	n-backMarkers
272.866268	0.024000	dropped_samples	3999.385911	Dropped 6 samples	n/a	n/a	n/a	n/a	n/a	n/a	n/a	6	UoHDataOffsetStream
274.167740	1.701006	nback_4	4000.687383	Steps:4 KeyPress:False Matched:False	1	n/a	4	False	False	n/a	n/a	n/a	n-backMarkers
274.472704	0.004000	dropped_samples	4000.992347	Dropped 1 samples	n/a	n/a	n/a	n/a	n/a	n/a	n/a	1	UoHDataOffsetStream
274.858425	0.004000	dropped_samples	4001.378068	Dropped 1 samples	n/a	n/a	n/a	n/a	n/a	n/a	n/a	1	UoHDataOffsetStream
274.871920	0.000000	finished_tutorial_n-back	4001.391563	Finished tutorial n-back	n/a	n/a	n/a	n/a	n/a	n/a	n/a	n/a	n-backMarkers
275.195316	0.004000	dropped_samples	4001.714960	Dropped 1 samples	n/a	n/a	n/a	n/a	n/a	n/a	n/a	1	UoHDataOffsetStream
282.202256	0.004000	dropped_samples	4008.721899	Dropped 1 samples	n/a	n/a	n/a	n/a	n/a	n/a	n/a	1	UoHDataOffsetStream
284.863339	0.012000	dropped_samples	4011.382982	Dropped 3 samples	n/a	n/a	n/a	n/a	n/a	n/a	n/a	3	UoHDataOffsetStream
285.131902	0.008000	dropped_samples	4011.651546	Dropped 2 samples	n/a	n/a	n/a	n/a	n/a	n/a	n/a	2	UoHDataOffsetStream
285.971798	0.004000	dropped_samples	4012.491441	Dropped 1 samples	n/a	n/a	n/a	n/a	n/a	n/a	n/a	1	UoHDataOffsetStream
286.787210	0.004000	dropped_samples	4013.306853	Dropped 1 samples	n/a	n/a	n/a	n/a	n/a	n/a	n/a	1	UoHDataOffsetStream
287.290135	0.008000	dropped_samples	4013.809778	Dropped 2 samples	n/a	n/a	n/a	n/a	n/a	n/a	n/a	2	UoHDataOffsetStream
288.559674	0.012000	dropped_samples	4015.079317	Dropped 3 samples	n/a	n/a	n/a	n/a	n/a	n/a	n/a	3	UoHDataOffsetStream
289.257917	0.004000	dropped_samples	4015.777560	Dropped 1 samples	n/a	n/a	n/a	n/a	n/a	n/a	n/a	1	UoHDataOffsetStream
289.643671	0.012000	dropped_samples	4016.163314	Dropped 3 samples	n/a	n/a	n/a	n/a	n/a	n/a	n/a	3	UoHDataOffsetStream
290.815574	0.004000	dropped_samples	4017.335217	Dropped 1 samples	n/a	n/a	n/a	n/a	n/a	n/a	n/a	1	UoHDataOffsetStream
291.035292	0.004000	dropped_samples	4017.554935	Dropped 1 samples	n/a	n/a	n/a	n/a	n/a	n/a	n/a	1	UoHDataOffsetStream
292.666146	0.024000	dropped_samples	4019.185789	Dropped 6 samples	n/a	n/a	n/a	n/a	n/a	n/a	n/a	6	UoHDataOffsetStream
296.674958	0.004000	dropped_samples	4023.194601	Dropped 1 samples	n/a	n/a	n/a	n/a	n/a	n/a	n/a	1	UoHDataOffsetStream
298.881993	0.012000	dropped_samples	4025.401636	Dropped 3 samples	n/a	n/a	n/a	n/a	n/a	n/a	n/a	3	UoHDataOffsetStream
299.961055	0.004000	dropped_samples	4026.480698	Dropped 1 samples	n/a	n/a	n/a	n/a	n/a	n/a	n/a	1	UoHDataOffsetStream
303.559759	0.004000	dropped_samples	4030.079402	Dropped 1 samples	n/a	n/a	n/a	n/a	n/a	n/a	n/a	1	UoHDataOffsetStream
304.570489	0.012000	dropped_samples	4031.090132	Dropped 3 samples	n/a	n/a	n/a	n/a	n/a	n/a	n/a	3	UoHDataOffsetStream
304.834163	0.012000	dropped_samples	4031.353806	Dropped 3 samples	n/a	n/a	n/a	n/a	n/a	n/a	n/a	3	UoHDataOffsetStream
305.674040	0.004000	dropped_samples	4032.193684	Dropped 1 samples	n/a	n/a	n/a	n/a	n/a	n/a	n/a	1	UoHDataOffsetStream
306.210766	0.004000	dropped_samples	4032.730409	Dropped 1 samples	n/a	n/a	n/a	n/a	n/a	n/a	n/a	1	UoHDataOffsetStream
307.519738	0.004000	dropped_samples	4034.039381	Dropped 1 samples	n/a	n/a	n/a	n/a	n/a	n/a	n/a	1	UoHDataOffsetStream
308.647650	0.012000	dropped_samples	4035.167294	Dropped 3 samples	n/a	n/a	n/a	n/a	n/a	n/a	n/a	3	UoHDataOffsetStream
309.700295	0.000000	started_n-back	4036.219938	Started n-back	n/a	n/a	n/a	n/a	n/a	n/a	n/a	n/a	n-backMarkers
309.780476	0.012000	dropped_samples	4036.300119	Dropped 3 samples	n/a	n/a	n/a	n/a	n/a	n/a	n/a	3	UoHDataOffsetStream
310.449434	0.036000	dropped_samples	4036.969077	Dropped 9 samples	n/a	n/a	n/a	n/a	n/a	n/a	n/a	9	UoHDataOffsetStream
311.626174	0.004000	dropped_samples	4038.145817	Dropped 1 samples	n/a	n/a	n/a	n/a	n/a	n/a	n/a	1	UoHDataOffsetStream
316.235571	0.004000	dropped_samples	4042.755214	Dropped 1 samples	n/a	n/a	n/a	n/a	n/a	n/a	n/a	1	UoHDataOffsetStream
317.168196	0.004000	dropped_samples	4043.687839	Dropped 1 samples	n/a	n/a	n/a	n/a	n/a	n/a	n/a	1	UoHDataOffsetStream
317.553921	0.012000	dropped_samples	4044.073564	Dropped 3 samples	n/a	n/a	n/a	n/a	n/a	n/a	n/a	3	UoHDataOffsetStream
317.700476	1.701006	nback_1	4044.220119	Steps:1 KeyPress:False Matched:False	1	n/a	1	False	False	n/a	n/a	n/a	n-backMarkers
318.069656	0.012000	dropped_samples	4044.589299	Dropped 3 samples	n/a	n/a	n/a	n/a	n/a	n/a	n/a	3	UoHDataOffsetStream
319.400641	1.701006	nback_1	4045.920284	Steps:1 KeyPress:False Matched:False	1	n/a	1	False	False	n/a	n/a	n/a	n-backMarkers
319.448480	0.008000	dropped_samples	4045.968123	Dropped 2 samples	n/a	n/a	n/a	n/a	n/a	n/a	n/a	2	UoHDataOffsetStream
321.101618	1.701006	nback_1	4047.621261	Steps:1 KeyPress:True Matched:False	0	n/a	1	True	False	n/a	n/a	n/a	n-backMarkers
321.899620	0.004000	dropped_samples	4048.419263	Dropped 1 samples	n/a	n/a	n/a	n/a	n/a	n/a	n/a	1	UoHDataOffsetStream
322.803416	1.701006	nback_1	4049.323059	Steps:1 KeyPress:False Matched:False	1	n/a	1	False	False	n/a	n/a	n/a	n-backMarkers
323.628155	0.004000	dropped_samples	4050.147798	Dropped 1 samples	n/a	n/a	n/a	n/a	n/a	n/a	n/a	1	UoHDataOffsetStream
324.503603	1.701006	nback_1	4051.023246	Steps:1 KeyPress:True Matched:False	0	n/a	1	True	False	n/a	n/a	n/a	n-backMarkers
324.585223	0.012000	dropped_samples	4051.104866	Dropped 3 samples	n/a	n/a	n/a	n/a	n/a	n/a	n/a	3	UoHDataOffsetStream
325.044199	0.004000	dropped_samples	4051.563842	Dropped 1 samples	n/a	n/a	n/a	n/a	n/a	n/a	n/a	1	UoHDataOffsetStream
325.449536	0.004000	dropped_samples	4051.969179	Dropped 1 samples	n/a	n/a	n/a	n/a	n/a	n/a	n/a	1	UoHDataOffsetStream
325.810809	0.012000	dropped_samples	4052.330452	Dropped 3 samples	n/a	n/a	n/a	n/a	n/a	n/a	n/a	3	UoHDataOffsetStream
325.952391	0.004000	dropped_samples	4052.472035	Dropped 1 samples	n/a	n/a	n/a	n/a	n/a	n/a	n/a	1	UoHDataOffsetStream
326.205391	1.701006	nback_1	4052.725035	Steps:1 KeyPress:False Matched:False	1	n/a	1	False	False	n/a	n/a	n/a	n-backMarkers
326.601804	0.012000	dropped_samples	4053.121447	Dropped 3 samples	n/a	n/a	n/a	n/a	n/a	n/a	n/a	3	UoHDataOffsetStream
327.900657	0.012000	dropped_samples	4054.420300	Dropped 3 samples	n/a	n/a	n/a	n/a	n/a	n/a	n/a	3	UoHDataOffsetStream
327.906410	1.701006	nback_1	4054.426053	Steps:1 KeyPress:True Matched:False	0	n/a	1	True	False	n/a	n/a	n/a	n-backMarkers
329.395175	0.004000	dropped_samples	4055.914818	Dropped 1 samples	n/a	n/a	n/a	n/a	n/a	n/a	n/a	1	UoHDataOffsetStream
329.607601	1.701006	nback_1	4056.127244	Steps:1 KeyPress:False Matched:False	1	n/a	1	False	False	n/a	n/a	n/a	n-backMarkers
330.176049	0.016000	dropped_samples	4056.695692	Dropped 4 samples	n/a	n/a	n/a	n/a	n/a	n/a	n/a	4	UoHDataOffsetStream
330.385193	0.012000	dropped_samples	4056.904836	Dropped 3 samples	n/a	n/a	n/a	n/a	n/a	n/a	n/a	3	UoHDataOffsetStream
331.308838	1.701006	nback_1	4057.828481	Steps:1 KeyPress:True Matched:False	0	n/a	1	True	False	n/a	n/a	n/a	n-backMarkers
332.339161	0.004000	dropped_samples	4058.858804	Dropped 1 samples	n/a	n/a	n/a	n/a	n/a	n/a	n/a	1	UoHDataOffsetStream
333.009738	1.701006	nback_1	4059.529381	Steps:1 KeyPress:False Matched:False	1	n/a	1	False	False	n/a	n/a	n/a	n-backMarkers
334.160465	0.012000	dropped_samples	4060.680108	Dropped 3 samples	n/a	n/a	n/a	n/a	n/a	n/a	n/a	3	UoHDataOffsetStream
334.710591	1.701006	nback_1	4061.230234	Steps:1 KeyPress:True Matched:False	0	n/a	1	True	False	n/a	n/a	n/a	n-backMarkers
336.411180	1.701006	nback_1	4062.930823	Steps:1 KeyPress:False Matched:False	1	n/a	1	False	False	n/a	n/a	n/a	n-backMarkers
338.112520	1.701006	nback_1	4064.632163	Steps:1 KeyPress:True Matched:False	0	n/a	1	True	False	n/a	n/a	n/a	n-backMarkers
339.813490	1.701006	nback_1	4066.333133	Steps:1 KeyPress:False Matched:False	1	n/a	1	False	False	n/a	n/a	n/a	n-backMarkers
340.571580	0.004000	dropped_samples	4067.091223	Dropped 1 samples	n/a	n/a	n/a	n/a	n/a	n/a	n/a	1	UoHDataOffsetStream
341.050133	0.004000	dropped_samples	4067.569776	Dropped 1 samples	n/a	n/a	n/a	n/a	n/a	n/a	n/a	1	UoHDataOffsetStream
341.514572	1.701006	nback_1	4068.034215	Steps:1 KeyPress:True Matched:False	0	n/a	1	True	False	n/a	n/a	n/a	n-backMarkers
342.275821	0.008000	dropped_samples	4068.795464	Dropped 2 samples	n/a	n/a	n/a	n/a	n/a	n/a	n/a	2	UoHDataOffsetStream
342.933093	0.012000	dropped_samples	4069.452736	Dropped 3 samples	n/a	n/a	n/a	n/a	n/a	n/a	n/a	3	UoHDataOffsetStream
343.215391	1.701006	nback_1	4069.735034	Steps:1 KeyPress:False Matched:False	1	n/a	1	False	False	n/a	n/a	n/a	n-backMarkers
344.916394	1.701006	nback_1	4071.436037	Steps:1 KeyPress:True Matched:False	0	n/a	1	True	False	n/a	n/a	n/a	n-backMarkers
346.617541	1.701006	nback_1	4073.137184	Steps:1 KeyPress:False Matched:True	0	n/a	1	False	True	n/a	n/a	n/a	n-backMarkers
348.317603	1.701006	nback_1	4074.837246	Steps:1 KeyPress:False Matched:False	1	n/a	1	False	False	n/a	n/a	n/a	n-backMarkers
349.209357	0.012000	dropped_samples	4075.729000	Dropped 3 samples	n/a	n/a	n/a	n/a	n/a	n/a	n/a	3	UoHDataOffsetStream
350.019057	1.701006	nback_1	4076.538700	Steps:1 KeyPress:True Matched:False	0	n/a	1	True	False	n/a	n/a	n/a	n-backMarkers
350.275361	0.020000	dropped_samples	4076.795004	Dropped 5 samples	n/a	n/a	n/a	n/a	n/a	n/a	n/a	5	UoHDataOffsetStream
351.719570	1.701006	nback_1	4078.239213	Steps:1 KeyPress:False Matched:True	0	n/a	1	False	True	n/a	n/a	n/a	n-backMarkers
352.016979	0.008000	dropped_samples	4078.536623	Dropped 2 samples	n/a	n/a	n/a	n/a	n/a	n/a	n/a	2	UoHDataOffsetStream
353.420464	1.701006	nback_1	4079.940107	Steps:1 KeyPress:False Matched:True	0	n/a	1	False	True	n/a	n/a	n/a	n-backMarkers
354.155716	0.012000	dropped_samples	4080.675359	Dropped 3 samples	n/a	n/a	n/a	n/a	n/a	n/a	n/a	3	UoHDataOffsetStream
355.122094	1.701006	nback_1	4081.641737	Steps:1 KeyPress:True Matched:False	0	n/a	1	True	False	n/a	n/a	n/a	n-backMarkers
355.522798	0.012000	dropped_samples	4082.042441	Dropped 3 samples	n/a	n/a	n/a	n/a	n/a	n/a	n/a	3	UoHDataOffsetStream
356.822490	1.701006	nback_1	4083.342134	Steps:1 KeyPress:False Matched:True	0	n/a	1	False	True	n/a	n/a	n/a	n-backMarkers
358.523452	1.701006	nback_1	4085.043095	Steps:1 KeyPress:False Matched:True	0	n/a	1	False	True	n/a	n/a	n/a	n-backMarkers
359.770896	0.004000	dropped_samples	4086.290539	Dropped 1 samples	n/a	n/a	n/a	n/a	n/a	n/a	n/a	1	UoHDataOffsetStream
360.223594	1.701006	nback_1	4086.743237	Steps:1 KeyPress:False Matched:False	1	n/a	1	False	False	n/a	n/a	n/a	n-backMarkers
361.020927	0.004000	dropped_samples	4087.540570	Dropped 1 samples	n/a	n/a	n/a	n/a	n/a	n/a	n/a	1	UoHDataOffsetStream
361.426187	0.012000	dropped_samples	4087.945830	Dropped 3 samples	n/a	n/a	n/a	n/a	n/a	n/a	n/a	3	UoHDataOffsetStream
361.641135	0.004000	dropped_samples	4088.160778	Dropped 1 samples	n/a	n/a	n/a	n/a	n/a	n/a	n/a	1	UoHDataOffsetStream
361.924639	1.701006	nback_1	4088.444283	Steps:1 KeyPress:False Matched:False	1	n/a	1	False	False	n/a	n/a	n/a	n-backMarkers
362.915407	0.012000	dropped_samples	4089.435050	Dropped 3 samples	n/a	n/a	n/a	n/a	n/a	n/a	n/a	3	UoHDataOffsetStream
363.625644	1.701006	nback_1	4090.145287	Steps:1 KeyPress:False Matched:False	1	n/a	1	False	False	n/a	n/a	n/a	n-backMarkers
363.945818	0.008000	dropped_samples	4090.465461	Dropped 2 samples	n/a	n/a	n/a	n/a	n/a	n/a	n/a	2	UoHDataOffsetStream
364.307083	0.012000	dropped_samples	4090.826727	Dropped 3 samples	n/a	n/a	n/a	n/a	n/a	n/a	n/a	3	UoHDataOffsetStream
365.327212	1.701006	nback_1	4091.846855	Steps:1 KeyPress:False Matched:False	1	n/a	1	False	False	n/a	n/a	n/a	n-backMarkers
365.361795	0.004000	dropped_samples	4091.881438	Dropped 1 samples	n/a	n/a	n/a	n/a	n/a	n/a	n/a	1	UoHDataOffsetStream
365.483830	0.004000	dropped_samples	4092.003473	Dropped 1 samples	n/a	n/a	n/a	n/a	n/a	n/a	n/a	1	UoHDataOffsetStream
366.465264	0.004000	dropped_samples	4092.984907	Dropped 1 samples	n/a	n/a	n/a	n/a	n/a	n/a	n/a	1	UoHDataOffsetStream
366.704528	0.004000	dropped_samples	4093.224171	Dropped 1 samples	n/a	n/a	n/a	n/a	n/a	n/a	n/a	1	UoHDataOffsetStream
366.777967	0.004000	dropped_samples	4093.297610	Dropped 1 samples	n/a	n/a	n/a	n/a	n/a	n/a	n/a	1	UoHDataOffsetStream
367.028206	1.701006	nback_1	4093.547849	Steps:1 KeyPress:False Matched:False	1	n/a	1	False	False	n/a	n/a	n/a	n-backMarkers
368.729933	1.701006	nback_1	4095.249576	Steps:1 KeyPress:False Matched:False	1	n/a	1	False	False	n/a	n/a	n/a	n-backMarkers
370.431528	1.701006	nback_1	4096.951171	Steps:1 KeyPress:True Matched:False	0	n/a	1	True	False	n/a	n/a	n/a	n-backMarkers
371.509270	0.008000	dropped_samples	4098.028913	Dropped 2 samples	n/a	n/a	n/a	n/a	n/a	n/a	n/a	2	UoHDataOffsetStream
371.797323	0.024000	dropped_samples	4098.316966	Dropped 6 samples	n/a	n/a	n/a	n/a	n/a	n/a	n/a	6	UoHDataOffsetStream
372.132046	1.701006	nback_1	4098.651689	Steps:1 KeyPress:False Matched:True	0	n/a	1	False	True	n/a	n/a	n/a	n-backMarkers
372.349113	0.012000	dropped_samples	4098.868756	Dropped 3 samples	n/a	n/a	n/a	n/a	n/a	n/a	n/a	3	UoHDataOffsetStream
373.832551	1.701006	nback_1	4100.352194	Steps:1 KeyPress:False Matched:True	0	n/a	1	False	True	n/a	n/a	n/a	n-backMarkers
374.146067	0.004000	dropped_samples	4100.665710	Dropped 1 samples	n/a	n/a	n/a	n/a	n/a	n/a	n/a	1	UoHDataOffsetStream
375.534165	1.701006	nback_1	4102.053808	Steps:1 KeyPress:False Matched:False	1	n/a	1	False	False	n/a	n/a	n/a	n-backMarkers
377.234607	1.701006	nback_1	4103.754250	Steps:1 KeyPress:True Matched:False	0	n/a	1	True	False	n/a	n/a	n/a	n-backMarkers
378.934600	1.701006	nback_1	4105.454243	Steps:1 KeyPress:False Matched:False	1	n/a	1	False	False	n/a	n/a	n/a	n-backMarkers
379.233838	0.004000	dropped_samples	4105.753481	Dropped 1 samples	n/a	n/a	n/a	n/a	n/a	n/a	n/a	1	UoHDataOffsetStream
379.810064	0.004000	dropped_samples	4106.329707	Dropped 1 samples	n/a	n/a	n/a	n/a	n/a	n/a	n/a	1	UoHDataOffsetStream
380.195879	0.008000	dropped_samples	4106.715522	Dropped 2 samples	n/a	n/a	n/a	n/a	n/a	n/a	n/a	2	UoHDataOffsetStream
380.635633	1.701006	nback_1	4107.155276	Steps:1 KeyPress:True Matched:False	0	n/a	1	True	False	n/a	n/a	n/a	n-backMarkers
382.336343	1.701006	nback_1	4108.855986	Steps:1 KeyPress:False Matched:False	1	n/a	1	False	False	n/a	n/a	n/a	n-backMarkers
382.905892	0.004000	dropped_samples	4109.425536	Dropped 1 samples	n/a	n/a	n/a	n/a	n/a	n/a	n/a	1	UoHDataOffsetStream
383.169388	0.012000	dropped_samples	4109.689031	Dropped 3 samples	n/a	n/a	n/a	n/a	n/a	n/a	n/a	3	UoHDataOffsetStream
384.037252	1.701006	nback_1	4110.556895	Steps:1 KeyPress:True Matched:False	0	n/a	1	True	False	n/a	n/a	n/a	n-backMarkers
385.737810	1.701006	nback_1	4112.257453	Steps:1 KeyPress:False Matched:False	1	n/a	1	False	False	n/a	n/a	n/a	n-backMarkers
386.650880	0.012000	dropped_samples	4113.170523	Dropped 3 samples	n/a	n/a	n/a	n/a	n/a	n/a	n/a	3	UoHDataOffsetStream
387.438686	1.701006	nback_1	4113.958330	Steps:1 KeyPress:True Matched:False	0	n/a	1	True	False	n/a	n/a	n/a	n-backMarkers
387.993676	0.012000	dropped_samples	4114.513319	Dropped 3 samples	n/a	n/a	n/a	n/a	n/a	n/a	n/a	3	UoHDataOffsetStream
388.066910	0.004000	dropped_samples	4114.586553	Dropped 1 samples	n/a	n/a	n/a	n/a	n/a	n/a	n/a	1	UoHDataOffsetStream
389.140192	1.701006	nback_1	4115.659835	Steps:1 KeyPress:False Matched:False	1	n/a	1	False	False	n/a	n/a	n/a	n-backMarkers
389.507362	0.004000	dropped_samples	4116.027005	Dropped 1 samples	n/a	n/a	n/a	n/a	n/a	n/a	n/a	1	UoHDataOffsetStream
390.841618	1.701006	nback_1	4117.361262	Steps:1 KeyPress:True Matched:False	0	n/a	1	True	False	n/a	n/a	n/a	n-backMarkers
391.475156	0.008000	dropped_samples	4117.994799	Dropped 2 samples	n/a	n/a	n/a	n/a	n/a	n/a	n/a	2	UoHDataOffsetStream
391.860881	0.024000	dropped_samples	4118.380524	Dropped 6 samples	n/a	n/a	n/a	n/a	n/a	n/a	n/a	6	UoHDataOffsetStream
392.541712	1.701006	nback_1	4119.061355	Steps:1 KeyPress:False Matched:True	0	n/a	1	False	True	n/a	n/a	n/a	n-backMarkers
394.243583	1.701006	nback_1	4120.763226	Steps:1 KeyPress:False Matched:True	0	n/a	1	False	True	n/a	n/a	n/a	n-backMarkers
394.668493	0.004000	dropped_samples	4121.188136	Dropped 1 samples	n/a	n/a	n/a	n/a	n/a	n/a	n/a	1	UoHDataOffsetStream
395.944556	1.701006	nback_1	4122.464199	Steps:1 KeyPress:False Matched:False	1	n/a	1	False	False	n/a	n/a	n/a	n-backMarkers
397.524958	0.012000	dropped_samples	4124.044601	Dropped 3 samples	n/a	n/a	n/a	n/a	n/a	n/a	n/a	3	UoHDataOffsetStream
397.645824	1.701006	nback_1	4124.165467	Steps:1 KeyPress:False Matched:False	1	n/a	1	False	False	n/a	n/a	n/a	n-backMarkers
399.345646	1.701006	nback_1	4125.865289	Steps:1 KeyPress:False Matched:False	1	n/a	1	False	False	n/a	n/a	n/a	n-backMarkers
401.046723	1.701006	nback_1	4127.566366	Steps:1 KeyPress:False Matched:False	1	n/a	1	False	False	n/a	n/a	n/a	n-backMarkers
401.172445	0.008000	dropped_samples	4127.692088	Dropped 2 samples	n/a	n/a	n/a	n/a	n/a	n/a	n/a	2	UoHDataOffsetStream
402.747610	1.701006	nback_1	4129.267253	Steps:1 KeyPress:False Matched:False	1	n/a	1	False	False	n/a	n/a	n/a	n-backMarkers
404.448784	1.701006	nback_1	4130.968427	Steps:1 KeyPress:True Matched:False	0	n/a	1	True	False	n/a	n/a	n/a	n-backMarkers
406.149188	1.701006	nback_1	4132.668831	Steps:1 KeyPress:False Matched:False	1	n/a	1	False	False	n/a	n/a	n/a	n-backMarkers
406.284749	0.004000	dropped_samples	4132.804392	Dropped 1 samples	n/a	n/a	n/a	n/a	n/a	n/a	n/a	1	UoHDataOffsetStream
407.850652	1.701006	nback_1	4134.370295	Steps:1 KeyPress:True Matched:False	0	n/a	1	True	False	n/a	n/a	n/a	n-backMarkers
408.565077	0.012000	dropped_samples	4135.084720	Dropped 3 samples	n/a	n/a	n/a	n/a	n/a	n/a	n/a	3	UoHDataOffsetStream
409.551626	1.701006	nback_1	4136.071270	Steps:1 KeyPress:False Matched:True	0	n/a	1	False	True	n/a	n/a	n/a	n-backMarkers
409.595301	0.012000	dropped_samples	4136.114944	Dropped 3 samples	n/a	n/a	n/a	n/a	n/a	n/a	n/a	3	UoHDataOffsetStream
410.122709	0.004000	dropped_samples	4136.642352	Dropped 1 samples	n/a	n/a	n/a	n/a	n/a	n/a	n/a	1	UoHDataOffsetStream
411.253486	1.701006	nback_1	4137.773130	Steps:1 KeyPress:False Matched:False	1	n/a	1	False	False	n/a	n/a	n/a	n-backMarkers
412.954083	1.701006	nback_1	4139.473726	Steps:1 KeyPress:True Matched:False	0	n/a	1	True	False	n/a	n/a	n/a	n-backMarkers
414.009389	0.020000	dropped_samples	4140.529032	Dropped 5 samples	n/a	n/a	n/a	n/a	n/a	n/a	n/a	5	UoHDataOffsetStream
414.321928	0.004000	dropped_samples	4140.841571	Dropped 1 samples	n/a	n/a	n/a	n/a	n/a	n/a	n/a	1	UoHDataOffsetStream
414.654614	1.701006	nback_1	4141.174257	Steps:1 KeyPress:False Matched:True	0	n/a	1	False	True	n/a	n/a	n/a	n-backMarkers
415.308241	0.004000	dropped_samples	4141.827884	Dropped 1 samples	n/a	n/a	n/a	n/a	n/a	n/a	n/a	1	UoHDataOffsetStream
416.355560	1.701006	nback_1	4142.875203	Steps:1 KeyPress:False Matched:True	0	n/a	1	False	True	n/a	n/a	n/a	n-backMarkers
416.436161	0.012000	dropped_samples	4142.955805	Dropped 3 samples	n/a	n/a	n/a	n/a	n/a	n/a	n/a	3	UoHDataOffsetStream
418.056686	1.701006	nback_1	4144.576329	Steps:1 KeyPress:False Matched:False	1	n/a	1	False	False	n/a	n/a	n/a	n-backMarkers
419.097315	0.012000	dropped_samples	4145.616958	Dropped 3 samples	n/a	n/a	n/a	n/a	n/a	n/a	n/a	3	UoHDataOffsetStream
419.757701	1.701006	nback_1	4146.277344	Steps:1 KeyPress:False Matched:False	1	n/a	1	False	False	n/a	n/a	n/a	n-backMarkers
420.874662	0.004000	dropped_samples	4147.394305	Dropped 1 samples	n/a	n/a	n/a	n/a	n/a	n/a	n/a	1	UoHDataOffsetStream
421.458706	1.701006	nback_1	4147.978349	Steps:1 KeyPress:False Matched:False	1	n/a	1	False	False	n/a	n/a	n/a	n-backMarkers
423.154907	0.012000	dropped_samples	4149.674550	Dropped 3 samples	n/a	n/a	n/a	n/a	n/a	n/a	n/a	3	UoHDataOffsetStream
423.160555	1.701006	nback_1	4149.680198	Steps:1 KeyPress:False Matched:True	0	n/a	1	False	True	n/a	n/a	n/a	n-backMarkers
423.394179	0.004000	dropped_samples	4149.913823	Dropped 1 samples	n/a	n/a	n/a	n/a	n/a	n/a	n/a	1	UoHDataOffsetStream
424.860679	1.701006	nback_1	4151.380322	Steps:1 KeyPress:False Matched:False	1	n/a	1	False	False	n/a	n/a	n/a	n-backMarkers
426.560746	1.701006	nback_1	4153.080390	Steps:1 KeyPress:True Matched:False	0	n/a	1	True	False	n/a	n/a	n/a	n-backMarkers
428.261649	1.701006	nback_1	4154.781292	Steps:1 KeyPress:True Matched:True	1	n/a	1	True	True	n/a	n/a	n/a	n-backMarkers
428.555313	0.012000	dropped_samples	4155.074956	Dropped 3 samples	n/a	n/a	n/a	n/a	n/a	n/a	n/a	3	UoHDataOffsetStream
429.962181	1.701006	nback_1	4156.481824	Steps:1 KeyPress:False Matched:True	0	n/a	1	False	True	n/a	n/a	n/a	n-backMarkers
431.663543	1.701006	nback_1	4158.183187	Steps:1 KeyPress:False Matched:False	1	n/a	1	False	False	n/a	n/a	n/a	n-backMarkers
433.363651	1.701006	nback_1	4159.883294	Steps:1 KeyPress:True Matched:False	0	n/a	1	True	False	n/a	n/a	n/a	n-backMarkers
434.121802	0.012000	dropped_samples	4160.641445	Dropped 3 samples	n/a	n/a	n/a	n/a	n/a	n/a	n/a	3	UoHDataOffsetStream
434.385564	0.004000	dropped_samples	4160.905207	Dropped 1 samples	n/a	n/a	n/a	n/a	n/a	n/a	n/a	1	UoHDataOffsetStream
435.064632	1.701006	nback_1	4161.584275	Steps:1 KeyPress:False Matched:False	1	n/a	1	False	False	n/a	n/a	n/a	n-backMarkers
436.738984	0.012000	dropped_samples	4163.258627	Dropped 3 samples	n/a	n/a	n/a	n/a	n/a	n/a	n/a	3	UoHDataOffsetStream
436.764724	1.701006	nback_1	4163.284367	Steps:1 KeyPress:True Matched:False	0	n/a	1	True	False	n/a	n/a	n/a	n-backMarkers
437.676468	0.004000	dropped_samples	4164.196111	Dropped 1 samples	n/a	n/a	n/a	n/a	n/a	n/a	n/a	1	UoHDataOffsetStream
438.466486	1.701006	nback_1	4164.986129	Steps:1 KeyPress:False Matched:False	1	n/a	1	False	False	n/a	n/a	n/a	n-backMarkers
440.167226	1.701006	nback_1	4166.686869	Steps:1 KeyPress:True Matched:False	0	n/a	1	True	False	n/a	n/a	n/a	n-backMarkers
440.362033	0.012000	dropped_samples	4166.881676	Dropped 3 samples	n/a	n/a	n/a	n/a	n/a	n/a	n/a	3	UoHDataOffsetStream
441.514357	0.012000	dropped_samples	4168.034000	Dropped 3 samples	n/a	n/a	n/a	n/a	n/a	n/a	n/a	3	UoHDataOffsetStream
441.868638	1.701006	nback_1	4168.388281	Steps:1 KeyPress:False Matched:False	1	n/a	1	False	False	n/a	n/a	n/a	n-backMarkers
443.406480	0.004000	dropped_samples	4169.926123	Dropped 1 samples	n/a	n/a	n/a	n/a	n/a	n/a	n/a	1	UoHDataOffsetStream
443.569691	1.701006	nback_1	4170.089334	Steps:1 KeyPress:True Matched:False	0	n/a	1	True	False	n/a	n/a	n/a	n-backMarkers
443.701905	0.020000	dropped_samples	4170.221548	Dropped 5 samples	n/a	n/a	n/a	n/a	n/a	n/a	n/a	5	UoHDataOffsetStream
444.009502	0.012000	dropped_samples	4170.529146	Dropped 3 samples	n/a	n/a	n/a	n/a	n/a	n/a	n/a	3	UoHDataOffsetStream
445.186246	0.004000	dropped_samples	4171.705889	Dropped 1 samples	n/a	n/a	n/a	n/a	n/a	n/a	n/a	1	UoHDataOffsetStream
445.270554	1.701006	nback_1	4171.790197	Steps:1 KeyPress:False Matched:False	1	n/a	1	False	False	n/a	n/a	n/a	n-backMarkers
446.050654	0.004000	dropped_samples	4172.570297	Dropped 1 samples	n/a	n/a	n/a	n/a	n/a	n/a	n/a	1	UoHDataOffsetStream
446.411881	0.004000	dropped_samples	4172.931524	Dropped 1 samples	n/a	n/a	n/a	n/a	n/a	n/a	n/a	1	UoHDataOffsetStream
446.971584	1.701006	nback_1	4173.491227	Steps:1 KeyPress:True Matched:False	0	n/a	1	True	False	n/a	n/a	n/a	n-backMarkers
448.428452	0.004000	dropped_samples	4174.948096	Dropped 1 samples	n/a	n/a	n/a	n/a	n/a	n/a	n/a	1	UoHDataOffsetStream
448.672716	1.701006	nback_1	4175.192359	Steps:1 KeyPress:False Matched:False	1	n/a	1	False	False	n/a	n/a	n/a	n-backMarkers
449.077926	0.012000	dropped_samples	4175.597569	Dropped 3 samples	n/a	n/a	n/a	n/a	n/a	n/a	n/a	3	UoHDataOffsetStream
450.373567	1.701006	nback_1	4176.893210	Steps:1 KeyPress:True Matched:False	0	n/a	1	True	False	n/a	n/a	n/a	n-backMarkers
452.074532	1.701006	nback_1	4178.594175	Steps:1 KeyPress:False Matched:True	0	n/a	1	False	True	n/a	n/a	n/a	n-backMarkers
452.676505	0.004000	dropped_samples	4179.196148	Dropped 1 samples	n/a	n/a	n/a	n/a	n/a	n/a	n/a	1	UoHDataOffsetStream
453.775637	1.701006	nback_1	4180.295280	Steps:1 KeyPress:False Matched:True	0	n/a	1	False	True	n/a	n/a	n/a	n-backMarkers
454.190227	0.048000	dropped_samples	4180.709870	Dropped 12 samples	n/a	n/a	n/a	n/a	n/a	n/a	n/a	12	UoHDataOffsetStream
455.477689	1.701006	nback_1	4181.997332	Steps:1 KeyPress:False Matched:False	1	n/a	1	False	False	n/a	n/a	n/a	n-backMarkers
457.177746	1.701006	nback_1	4183.697389	Steps:1 KeyPress:False Matched:False	1	n/a	1	False	False	n/a	n/a	n/a	n-backMarkers
457.768376	0.012000	dropped_samples	4184.288019	Dropped 3 samples	n/a	n/a	n/a	n/a	n/a	n/a	n/a	3	UoHDataOffsetStream
457.808437	0.012000	dropped_samples	4184.328080	Dropped 3 samples	n/a	n/a	n/a	n/a	n/a	n/a	n/a	3	UoHDataOffsetStream
458.316332	0.008000	dropped_samples	4184.835975	Dropped 2 samples	n/a	n/a	n/a	n/a	n/a	n/a	n/a	2	UoHDataOffsetStream
458.878587	1.701006	nback_1	4185.398230	Steps:1 KeyPress:True Matched:False	0	n/a	1	True	False	n/a	n/a	n/a	n-backMarkers
459.541776	0.012000	dropped_samples	4186.061419	Dropped 3 samples	n/a	n/a	n/a	n/a	n/a	n/a	n/a	3	UoHDataOffsetStream
460.381911	0.004000	dropped_samples	4186.901554	Dropped 1 samples	n/a	n/a	n/a	n/a	n/a	n/a	n/a	1	UoHDataOffsetStream
460.406106	0.004000	dropped_samples	4186.925749	Dropped 1 samples	n/a	n/a	n/a	n/a	n/a	n/a	n/a	1	UoHDataOffsetStream
460.579539	1.701006	nback_1	4187.099182	Steps:1 KeyPress:False Matched:False	1	n/a	1	False	False	n/a	n/a	n/a	n-backMarkers
462.134573	0.004000	dropped_samples	4188.654216	Dropped 1 samples	n/a	n/a	n/a	n/a	n/a	n/a	n/a	1	UoHDataOffsetStream
462.280596	1.701006	nback_1	4188.800239	Steps:1 KeyPress:True Matched:False	0	n/a	1	True	False	n/a	n/a	n/a	n-backMarkers
463.980615	1.701006	nback_1	4190.500258	Steps:1 KeyPress:False Matched:False	1	n/a	1	False	False	n/a	n/a	n/a	n-backMarkers
465.681734	1.701006	nback_1	4192.201377	Steps:1 KeyPress:True Matched:False	0	n/a	1	True	False	n/a	n/a	n/a	n-backMarkers
466.641648	0.004000	dropped_samples	4193.161291	Dropped 1 samples	n/a	n/a	n/a	n/a	n/a	n/a	n/a	1	UoHDataOffsetStream
466.812340	0.004000	dropped_samples	4193.331983	Dropped 1 samples	n/a	n/a	n/a	n/a	n/a	n/a	n/a	1	UoHDataOffsetStream
467.198096	0.012000	dropped_samples	4193.717739	Dropped 3 samples	n/a	n/a	n/a	n/a	n/a	n/a	n/a	3	UoHDataOffsetStream
467.382741	1.701006	nback_1	4193.902384	Steps:1 KeyPress:False Matched:True	0	n/a	1	False	True	n/a	n/a	n/a	n-backMarkers
468.443246	0.004000	dropped_samples	4194.962889	Dropped 1 samples	n/a	n/a	n/a	n/a	n/a	n/a	n/a	1	UoHDataOffsetStream
469.083673	1.701006	nback_1	4195.603316	Steps:1 KeyPress:False Matched:True	0	n/a	1	False	True	n/a	n/a	n/a	n-backMarkers
470.784335	1.701006	nback_1	4197.303978	Steps:1 KeyPress:False Matched:False	1	n/a	1	False	False	n/a	n/a	n/a	n-backMarkers
471.060398	0.024000	dropped_samples	4197.580041	Dropped 6 samples	n/a	n/a	n/a	n/a	n/a	n/a	n/a	6	UoHDataOffsetStream
472.484679	1.701006	nback_1	4199.004322	Steps:1 KeyPress:True Matched:False	0	n/a	1	True	False	n/a	n/a	n/a	n-backMarkers
473.795520	0.020000	dropped_samples	4200.315163	Dropped 5 samples	n/a	n/a	n/a	n/a	n/a	n/a	n/a	5	UoHDataOffsetStream
474.186602	1.701006	nback_1	4200.706245	Steps:1 KeyPress:False Matched:False	1	n/a	1	False	False	n/a	n/a	n/a	n-backMarkers
475.887582	1.701006	nback_1	4202.407225	Steps:1 KeyPress:True Matched:False	0	n/a	1	True	False	n/a	n/a	n/a	n-backMarkers
477.588657	1.701006	nback_1	4204.108301	Steps:1 KeyPress:False Matched:False	1	n/a	1	False	False	n/a	n/a	n/a	n-backMarkers
477.637583	0.004000	dropped_samples	4204.157226	Dropped 1 samples	n/a	n/a	n/a	n/a	n/a	n/a	n/a	1	UoHDataOffsetStream
479.289754	1.701006	nback_1	4205.809397	Steps:1 KeyPress:True Matched:False	0	n/a	1	True	False	n/a	n/a	n/a	n-backMarkers
480.611218	0.012000	dropped_samples	4207.130862	Dropped 3 samples	n/a	n/a	n/a	n/a	n/a	n/a	n/a	3	UoHDataOffsetStream
480.991244	1.701006	nback_1	4207.510887	Steps:1 KeyPress:False Matched:False	1	n/a	1	False	False	n/a	n/a	n/a	n-backMarkers
482.691680	1.701006	nback_1	4209.211323	Steps:1 KeyPress:True Matched:False	0	n/a	1	True	False	n/a	n/a	n/a	n-backMarkers
483.540904	0.008000	dropped_samples	4210.060547	Dropped 2 samples	n/a	n/a	n/a	n/a	n/a	n/a	n/a	2	UoHDataOffsetStream
484.392572	1.701006	nback_1	4210.912215	Steps:1 KeyPress:False Matched:False	1	n/a	1	False	False	n/a	n/a	n/a	n-backMarkers
484.502812	0.008000	dropped_samples	4211.022456	Dropped 2 samples	n/a	n/a	n/a	n/a	n/a	n/a	n/a	2	UoHDataOffsetStream
485.606383	0.004000	dropped_samples	4212.126027	Dropped 1 samples	n/a	n/a	n/a	n/a	n/a	n/a	n/a	1	UoHDataOffsetStream
486.093129	1.701006	nback_1	4212.612772	Steps:1 KeyPress:True Matched:False	0	n/a	1	True	False	n/a	n/a	n/a	n-backMarkers
490.069259	0.004000	dropped_samples	4216.588902	Dropped 1 samples	n/a	n/a	n/a	n/a	n/a	n/a	n/a	1	UoHDataOffsetStream
491.675724	0.004000	dropped_samples	4218.195367	Dropped 1 samples	n/a	n/a	n/a	n/a	n/a	n/a	n/a	1	UoHDataOffsetStream
491.939345	0.012000	dropped_samples	4218.458989	Dropped 3 samples	n/a	n/a	n/a	n/a	n/a	n/a	n/a	3	UoHDataOffsetStream
494.029279	0.024000	dropped_samples	4220.548922	Dropped 6 samples	n/a	n/a	n/a	n/a	n/a	n/a	n/a	6	UoHDataOffsetStream
494.794658	1.701006	nback_2	4221.314301	Steps:2 KeyPress:False Matched:False	1	n/a	2	False	False	n/a	n/a	n/a	n-backMarkers
496.495631	1.701006	nback_2	4223.015274	Steps:2 KeyPress:False Matched:False	1	n/a	2	False	False	n/a	n/a	n/a	n-backMarkers
498.195845	1.701006	nback_2	4224.715488	Steps:2 KeyPress:False Matched:False	1	n/a	2	False	False	n/a	n/a	n/a	n-backMarkers
498.394496	0.004000	dropped_samples	4224.914139	Dropped 1 samples	n/a	n/a	n/a	n/a	n/a	n/a	n/a	1	UoHDataOffsetStream
499.668940	0.012000	dropped_samples	4226.188583	Dropped 3 samples	n/a	n/a	n/a	n/a	n/a	n/a	n/a	3	UoHDataOffsetStream
499.896836	1.701006	nback_2	4226.416479	Steps:2 KeyPress:False Matched:False	1	n/a	2	False	False	n/a	n/a	n/a	n-backMarkers
500.845673	0.012000	dropped_samples	4227.365316	Dropped 3 samples	n/a	n/a	n/a	n/a	n/a	n/a	n/a	3	UoHDataOffsetStream
501.446309	0.012000	dropped_samples	4227.965952	Dropped 3 samples	n/a	n/a	n/a	n/a	n/a	n/a	n/a	3	UoHDataOffsetStream
501.598552	1.701006	nback_2	4228.118195	Steps:2 KeyPress:False Matched:False	1	n/a	2	False	False	n/a	n/a	n/a	n-backMarkers
502.549774	0.012000	dropped_samples	4229.069417	Dropped 3 samples	n/a	n/a	n/a	n/a	n/a	n/a	n/a	3	UoHDataOffsetStream
503.101579	0.004000	dropped_samples	4229.621222	Dropped 1 samples	n/a	n/a	n/a	n/a	n/a	n/a	n/a	1	UoHDataOffsetStream
503.298710	1.701006	nback_2	4229.818353	Steps:2 KeyPress:False Matched:False	1	n/a	2	False	False	n/a	n/a	n/a	n-backMarkers
504.999679	1.701006	nback_2	4231.519323	Steps:2 KeyPress:True Matched:False	0	n/a	2	True	False	n/a	n/a	n/a	n-backMarkers
505.167207	0.004000	dropped_samples	4231.686850	Dropped 1 samples	n/a	n/a	n/a	n/a	n/a	n/a	n/a	1	UoHDataOffsetStream
506.115290	0.004000	dropped_samples	4232.634933	Dropped 1 samples	n/a	n/a	n/a	n/a	n/a	n/a	n/a	1	UoHDataOffsetStream
506.148430	0.004000	dropped_samples	4232.668073	Dropped 1 samples	n/a	n/a	n/a	n/a	n/a	n/a	n/a	1	UoHDataOffsetStream
506.294920	0.004000	dropped_samples	4232.814564	Dropped 1 samples	n/a	n/a	n/a	n/a	n/a	n/a	n/a	1	UoHDataOffsetStream
506.700632	1.701006	nback_2	4233.220275	Steps:2 KeyPress:False Matched:False	1	n/a	2	False	False	n/a	n/a	n/a	n-backMarkers
507.178703	0.012000	dropped_samples	4233.698346	Dropped 3 samples	n/a	n/a	n/a	n/a	n/a	n/a	n/a	3	UoHDataOffsetStream
508.165060	0.004000	dropped_samples	4234.684703	Dropped 1 samples	n/a	n/a	n/a	n/a	n/a	n/a	n/a	1	UoHDataOffsetStream
508.402410	1.701006	nback_2	4234.922053	Steps:2 KeyPress:False Matched:False	1	n/a	2	False	False	n/a	n/a	n/a	n-backMarkers
510.103652	1.701006	nback_2	4236.623295	Steps:2 KeyPress:True Matched:False	0	n/a	2	True	False	n/a	n/a	n/a	n-backMarkers
511.804201	1.701006	nback_2	4238.323844	Steps:2 KeyPress:False Matched:False	1	n/a	2	False	False	n/a	n/a	n/a	n-backMarkers
513.228737	0.012000	dropped_samples	4239.748380	Dropped 3 samples	n/a	n/a	n/a	n/a	n/a	n/a	n/a	3	UoHDataOffsetStream
513.505282	1.701006	nback_2	4240.024925	Steps:2 KeyPress:False Matched:False	1	n/a	2	False	False	n/a	n/a	n/a	n-backMarkers
514.092898	0.020000	dropped_samples	4240.612541	Dropped 5 samples	n/a	n/a	n/a	n/a	n/a	n/a	n/a	5	UoHDataOffsetStream
515.205942	1.701006	nback_2	4241.725585	Steps:2 KeyPress:True Matched:False	0	n/a	2	True	False	n/a	n/a	n/a	n-backMarkers
516.421934	0.012000	dropped_samples	4242.941577	Dropped 3 samples	n/a	n/a	n/a	n/a	n/a	n/a	n/a	3	UoHDataOffsetStream
516.905924	1.701006	nback_2	4243.425567	Steps:2 KeyPress:False Matched:True	0	n/a	2	False	True	n/a	n/a	n/a	n-backMarkers
518.003917	0.004000	dropped_samples	4244.523560	Dropped 1 samples	n/a	n/a	n/a	n/a	n/a	n/a	n/a	1	UoHDataOffsetStream
518.606337	1.701006	nback_2	4245.125980	Steps:2 KeyPress:False Matched:False	1	n/a	2	False	False	n/a	n/a	n/a	n-backMarkers
520.306780	1.701006	nback_2	4246.826423	Steps:2 KeyPress:False Matched:True	0	n/a	2	False	True	n/a	n/a	n/a	n-backMarkers
522.007810	1.701006	nback_2	4248.527453	Steps:2 KeyPress:False Matched:True	0	n/a	2	False	True	n/a	n/a	n/a	n-backMarkers
523.709714	1.701006	nback_2	4250.229357	Steps:2 KeyPress:False Matched:False	1	n/a	2	False	False	n/a	n/a	n/a	n-backMarkers
525.411655	1.701006	nback_2	4251.931298	Steps:2 KeyPress:True Matched:False	0	n/a	2	True	False	n/a	n/a	n/a	n-backMarkers
526.426821	0.040000	dropped_samples	4252.946464	Dropped 10 samples	n/a	n/a	n/a	n/a	n/a	n/a	n/a	10	UoHDataOffsetStream
527.112314	1.701006	nback_2	4253.631957	Steps:2 KeyPress:False Matched:False	1	n/a	2	False	False	n/a	n/a	n/a	n-backMarkers
528.086987	0.004000	dropped_samples	4254.606630	Dropped 1 samples	n/a	n/a	n/a	n/a	n/a	n/a	n/a	1	UoHDataOffsetStream
528.812706	1.701006	nback_2	4255.332350	Steps:2 KeyPress:False Matched:False	1	n/a	2	False	False	n/a	n/a	n/a	n-backMarkers
529.981569	0.012000	dropped_samples	4256.501212	Dropped 3 samples	n/a	n/a	n/a	n/a	n/a	n/a	n/a	3	UoHDataOffsetStream
530.514592	1.701006	nback_2	4257.034235	Steps:2 KeyPress:True Matched:False	0	n/a	2	True	False	n/a	n/a	n/a	n-backMarkers
531.495237	0.024000	dropped_samples	4258.014880	Dropped 6 samples	n/a	n/a	n/a	n/a	n/a	n/a	n/a	6	UoHDataOffsetStream
532.139684	0.004000	dropped_samples	4258.659327	Dropped 1 samples	n/a	n/a	n/a	n/a	n/a	n/a	n/a	1	UoHDataOffsetStream
532.215683	1.701006	nback_2	4258.735326	Steps:2 KeyPress:True Matched:True	1	n/a	2	True	True	n/a	n/a	n/a	n-backMarkers
533.819436	0.008000	dropped_samples	4260.339080	Dropped 2 samples	n/a	n/a	n/a	n/a	n/a	n/a	n/a	2	UoHDataOffsetStream
533.917086	1.701006	nback_2	4260.436729	Steps:2 KeyPress:False Matched:False	1	n/a	2	False	False	n/a	n/a	n/a	n-backMarkers
535.142708	0.004000	dropped_samples	4261.662351	Dropped 1 samples	n/a	n/a	n/a	n/a	n/a	n/a	n/a	1	UoHDataOffsetStream
535.523536	0.004000	dropped_samples	4262.043180	Dropped 1 samples	n/a	n/a	n/a	n/a	n/a	n/a	n/a	1	UoHDataOffsetStream
535.617206	1.701006	nback_2	4262.136849	Steps:2 KeyPress:True Matched:True	1	n/a	2	True	True	n/a	n/a	n/a	n-backMarkers
536.124109	0.012000	dropped_samples	4262.643753	Dropped 3 samples	n/a	n/a	n/a	n/a	n/a	n/a	n/a	3	UoHDataOffsetStream
537.318123	1.701006	nback_2	4263.837766	Steps:2 KeyPress:True Matched:True	1	n/a	2	True	True	n/a	n/a	n/a	n-backMarkers
539.018624	1.701006	nback_2	4265.538267	Steps:2 KeyPress:False Matched:False	1	n/a	2	False	False	n/a	n/a	n/a	n-backMarkers
540.719748	1.701006	nback_2	4267.239391	Steps:2 KeyPress:False Matched:False	1	n/a	2	False	False	n/a	n/a	n/a	n-backMarkers
541.983508	0.004000	dropped_samples	4268.503151	Dropped 1 samples	n/a	n/a	n/a	n/a	n/a	n/a	n/a	1	UoHDataOffsetStream
542.419825	1.701006	nback_2	4268.939468	Steps:2 KeyPress:True Matched:False	0	n/a	2	True	False	n/a	n/a	n/a	n-backMarkers
542.628096	0.012000	dropped_samples	4269.147739	Dropped 3 samples	n/a	n/a	n/a	n/a	n/a	n/a	n/a	3	UoHDataOffsetStream
543.687644	0.004000	dropped_samples	4270.207287	Dropped 1 samples	n/a	n/a	n/a	n/a	n/a	n/a	n/a	1	UoHDataOffsetStream
544.044112	0.012000	dropped_samples	4270.563756	Dropped 3 samples	n/a	n/a	n/a	n/a	n/a	n/a	n/a	3	UoHDataOffsetStream
544.121126	1.701006	nback_2	4270.640769	Steps:2 KeyPress:False Matched:True	0	n/a	2	False	True	n/a	n/a	n/a	n-backMarkers
544.239464	0.004000	dropped_samples	4270.759108	Dropped 1 samples	n/a	n/a	n/a	n/a	n/a	n/a	n/a	1	UoHDataOffsetStream
545.822541	1.701006	nback_2	4272.342184	Steps:2 KeyPress:False Matched:False	1	n/a	2	False	False	n/a	n/a	n/a	n-backMarkers
546.563590	0.004000	dropped_samples	4273.083233	Dropped 1 samples	n/a	n/a	n/a	n/a	n/a	n/a	n/a	1	UoHDataOffsetStream
547.522648	1.701006	nback_2	4274.042291	Steps:2 KeyPress:False Matched:False	1	n/a	2	False	False	n/a	n/a	n/a	n-backMarkers
547.623236	0.012000	dropped_samples	4274.142880	Dropped 3 samples	n/a	n/a	n/a	n/a	n/a	n/a	n/a	3	UoHDataOffsetStream
548.316554	0.004000	dropped_samples	4274.836197	Dropped 1 samples	n/a	n/a	n/a	n/a	n/a	n/a	n/a	1	UoHDataOffsetStream
549.223502	1.701006	nback_2	4275.743146	Steps:2 KeyPress:True Matched:False	0	n/a	2	True	False	n/a	n/a	n/a	n-backMarkers
550.924647	1.701006	nback_2	4277.444290	Steps:2 KeyPress:False Matched:False	1	n/a	2	False	False	n/a	n/a	n/a	n-backMarkers
551.724785	0.012000	dropped_samples	4278.244428	Dropped 3 samples	n/a	n/a	n/a	n/a	n/a	n/a	n/a	3	UoHDataOffsetStream
552.625223	1.701006	nback_2	4279.144866	Steps:2 KeyPress:False Matched:True	0	n/a	2	False	True	n/a	n/a	n/a	n-backMarkers
554.325289	1.701006	nback_2	4280.844932	Steps:2 KeyPress:True Matched:False	0	n/a	2	True	False	n/a	n/a	n/a	n-backMarkers
555.059729	0.004000	dropped_samples	4281.579372	Dropped 1 samples	n/a	n/a	n/a	n/a	n/a	n/a	n/a	1	UoHDataOffsetStream
555.684771	0.012000	dropped_samples	4282.204415	Dropped 3 samples	n/a	n/a	n/a	n/a	n/a	n/a	n/a	3	UoHDataOffsetStream
556.026269	1.701006	nback_2	4282.545912	Steps:2 KeyPress:False Matched:True	0	n/a	2	False	True	n/a	n/a	n/a	n-backMarkers
556.475747	0.012000	dropped_samples	4282.995391	Dropped 3 samples	n/a	n/a	n/a	n/a	n/a	n/a	n/a	3	UoHDataOffsetStream
557.727132	1.701006	nback_2	4284.246775	Steps:2 KeyPress:False Matched:False	1	n/a	2	False	False	n/a	n/a	n/a	n-backMarkers
557.916233	0.008000	dropped_samples	4284.435877	Dropped 2 samples	n/a	n/a	n/a	n/a	n/a	n/a	n/a	2	UoHDataOffsetStream
558.204299	0.008000	dropped_samples	4284.723942	Dropped 2 samples	n/a	n/a	n/a	n/a	n/a	n/a	n/a	2	UoHDataOffsetStream
559.428638	1.701006	nback_2	4285.948281	Steps:2 KeyPress:False Matched:False	1	n/a	2	False	False	n/a	n/a	n/a	n-backMarkers
559.791279	0.004000	dropped_samples	4286.310922	Dropped 1 samples	n/a	n/a	n/a	n/a	n/a	n/a	n/a	1	UoHDataOffsetStream
560.294155	0.012000	dropped_samples	4286.813798	Dropped 3 samples	n/a	n/a	n/a	n/a	n/a	n/a	n/a	3	UoHDataOffsetStream
561.128641	1.701006	nback_2	4287.648284	Steps:2 KeyPress:True Matched:False	0	n/a	2	True	False	n/a	n/a	n/a	n-backMarkers
561.397669	0.004000	dropped_samples	4287.917312	Dropped 1 samples	n/a	n/a	n/a	n/a	n/a	n/a	n/a	1	UoHDataOffsetStream
562.828781	1.701006	nback_2	4289.348424	Steps:2 KeyPress:False Matched:False	1	n/a	2	False	False	n/a	n/a	n/a	n-backMarkers
563.414276	0.012000	dropped_samples	4289.933920	Dropped 3 samples	n/a	n/a	n/a	n/a	n/a	n/a	n/a	3	UoHDataOffsetStream
564.529785	1.701006	nback_2	4291.049428	Steps:2 KeyPress:False Matched:False	1	n/a	2	False	False	n/a	n/a	n/a	n-backMarkers
566.231796	1.701006	nback_2	4292.751439	Steps:2 KeyPress:True Matched:False	0	n/a	2	True	False	n/a	n/a	n/a	n-backMarkers
567.931881	1.701006	nback_2	4294.451524	Steps:2 KeyPress:False Matched:False	1	n/a	2	False	False	n/a	n/a	n/a	n-backMarkers
569.633750	1.701006	nback_2	4296.153393	Steps:2 KeyPress:False Matched:False	1	n/a	2	False	False	n/a	n/a	n/a	n-backMarkers
570.015846	0.012000	dropped_samples	4296.535489	Dropped 3 samples	n/a	n/a	n/a	n/a	n/a	n/a	n/a	3	UoHDataOffsetStream
570.303967	0.008000	dropped_samples	4296.823610	Dropped 2 samples	n/a	n/a	n/a	n/a	n/a	n/a	n/a	2	UoHDataOffsetStream
571.070565	0.008000	dropped_samples	4297.590208	Dropped 2 samples	n/a	n/a	n/a	n/a	n/a	n/a	n/a	2	UoHDataOffsetStream
571.334550	1.701006	nback_2	4297.854193	Steps:2 KeyPress:True Matched:False	0	n/a	2	True	False	n/a	n/a	n/a	n-backMarkers
571.431890	0.020000	dropped_samples	4297.951533	Dropped 5 samples	n/a	n/a	n/a	n/a	n/a	n/a	n/a	5	UoHDataOffsetStream
573.035641	1.701006	nback_2	4299.555284	Steps:2 KeyPress:False Matched:True	0	n/a	2	False	True	n/a	n/a	n/a	n-backMarkers
573.516847	0.004000	dropped_samples	4300.036490	Dropped 1 samples	n/a	n/a	n/a	n/a	n/a	n/a	n/a	1	UoHDataOffsetStream
574.735824	1.701006	nback_2	4301.255467	Steps:2 KeyPress:False Matched:False	1	n/a	2	False	False	n/a	n/a	n/a	n-backMarkers
576.437589	1.701006	nback_2	4302.957232	Steps:2 KeyPress:False Matched:True	0	n/a	2	False	True	n/a	n/a	n/a	n-backMarkers
577.096008	0.012000	dropped_samples	4303.615651	Dropped 3 samples	n/a	n/a	n/a	n/a	n/a	n/a	n/a	3	UoHDataOffsetStream
578.053021	0.004000	dropped_samples	4304.572664	Dropped 1 samples	n/a	n/a	n/a	n/a	n/a	n/a	n/a	1	UoHDataOffsetStream
578.138016	1.701006	nback_2	4304.657659	Steps:2 KeyPress:False Matched:False	1	n/a	2	False	False	n/a	n/a	n/a	n-backMarkers
578.316638	0.012000	dropped_samples	4304.836281	Dropped 3 samples	n/a	n/a	n/a	n/a	n/a	n/a	n/a	3	UoHDataOffsetStream
579.839526	1.701006	nback_2	4306.359170	Steps:2 KeyPress:False Matched:False	1	n/a	2	False	False	n/a	n/a	n/a	n-backMarkers
579.879189	0.004000	dropped_samples	4306.398832	Dropped 1 samples	n/a	n/a	n/a	n/a	n/a	n/a	n/a	1	UoHDataOffsetStream
581.539740	1.701006	nback_2	4308.059383	Steps:2 KeyPress:True Matched:False	0	n/a	2	True	False	n/a	n/a	n/a	n-backMarkers
583.240875	1.701006	nback_2	4309.760518	Steps:2 KeyPress:False Matched:True	0	n/a	2	False	True	n/a	n/a	n/a	n-backMarkers
584.293246	0.012000	dropped_samples	4310.812889	Dropped 3 samples	n/a	n/a	n/a	n/a	n/a	n/a	n/a	3	UoHDataOffsetStream
584.869493	0.004000	dropped_samples	4311.389136	Dropped 1 samples	n/a	n/a	n/a	n/a	n/a	n/a	n/a	1	UoHDataOffsetStream
584.941577	1.701006	nback_2	4311.461220	Steps:2 KeyPress:False Matched:False	1	n/a	2	False	False	n/a	n/a	n/a	n-backMarkers
585.910685	0.012000	dropped_samples	4312.430328	Dropped 3 samples	n/a	n/a	n/a	n/a	n/a	n/a	n/a	3	UoHDataOffsetStream
586.622375	0.012000	dropped_samples	4313.142018	Dropped 3 samples	n/a	n/a	n/a	n/a	n/a	n/a	n/a	3	UoHDataOffsetStream
586.642731	1.701006	nback_2	4313.162374	Steps:2 KeyPress:False Matched:False	1	n/a	2	False	False	n/a	n/a	n/a	n-backMarkers
588.343703	1.701006	nback_2	4314.863346	Steps:2 KeyPress:False Matched:False	1	n/a	2	False	False	n/a	n/a	n/a	n-backMarkers
588.516929	0.004000	dropped_samples	4315.036573	Dropped 1 samples	n/a	n/a	n/a	n/a	n/a	n/a	n/a	1	UoHDataOffsetStream
590.044841	1.701006	nback_2	4316.564484	Steps:2 KeyPress:False Matched:False	1	n/a	2	False	False	n/a	n/a	n/a	n-backMarkers
590.343104	0.004000	dropped_samples	4316.862747	Dropped 1 samples	n/a	n/a	n/a	n/a	n/a	n/a	n/a	1	UoHDataOffsetStream
591.493968	0.008000	dropped_samples	4318.013611	Dropped 2 samples	n/a	n/a	n/a	n/a	n/a	n/a	n/a	2	UoHDataOffsetStream
591.544257	0.024000	dropped_samples	4318.063900	Dropped 6 samples	n/a	n/a	n/a	n/a	n/a	n/a	n/a	6	UoHDataOffsetStream
591.745834	1.701006	nback_2	4318.265477	Steps:2 KeyPress:False Matched:False	1	n/a	2	False	False	n/a	n/a	n/a	n-backMarkers
592.188832	0.004000	dropped_samples	4318.708475	Dropped 1 samples	n/a	n/a	n/a	n/a	n/a	n/a	n/a	1	UoHDataOffsetStream
593.446807	1.701006	nback_2	4319.966450	Steps:2 KeyPress:False Matched:False	1	n/a	2	False	False	n/a	n/a	n/a	n-backMarkers
593.678082	0.012000	dropped_samples	4320.197725	Dropped 3 samples	n/a	n/a	n/a	n/a	n/a	n/a	n/a	3	UoHDataOffsetStream
594.542444	0.012000	dropped_samples	4321.062088	Dropped 3 samples	n/a	n/a	n/a	n/a	n/a	n/a	n/a	3	UoHDataOffsetStream
595.147445	1.701006	nback_2	4321.667088	Steps:2 KeyPress:True Matched:False	0	n/a	2	True	False	n/a	n/a	n/a	n-backMarkers
596.848738	1.701006	nback_2	4323.368381	Steps:2 KeyPress:False Matched:True	0	n/a	2	False	True	n/a	n/a	n/a	n-backMarkers
598.548773	1.701006	nback_2	4325.068416	Steps:2 KeyPress:False Matched:False	1	n/a	2	False	False	n/a	n/a	n/a	n-backMarkers
600.250719	1.701006	nback_2	4326.770362	Steps:2 KeyPress:False Matched:False	1	n/a	2	False	False	n/a	n/a	n/a	n-backMarkers
601.951624	1.701006	nback_2	4328.471267	Steps:2 KeyPress:False Matched:False	1	n/a	2	False	False	n/a	n/a	n/a	n-backMarkers
602.848132	0.012000	dropped_samples	4329.367775	Dropped 3 samples	n/a	n/a	n/a	n/a	n/a	n/a	n/a	3	UoHDataOffsetStream
603.651980	1.701006	nback_2	4330.171623	Steps:2 KeyPress:False Matched:True	0	n/a	2	False	True	n/a	n/a	n/a	n-backMarkers
604.141948	0.004000	dropped_samples	4330.661591	Dropped 1 samples	n/a	n/a	n/a	n/a	n/a	n/a	n/a	1	UoHDataOffsetStream
605.352436	1.701006	nback_2	4331.872079	Steps:2 KeyPress:False Matched:False	1	n/a	2	False	False	n/a	n/a	n/a	n-backMarkers
607.053719	1.701006	nback_2	4333.573363	Steps:2 KeyPress:False Matched:False	1	n/a	2	False	False	n/a	n/a	n/a	n-backMarkers
608.126348	0.004000	dropped_samples	4334.645991	Dropped 1 samples	n/a	n/a	n/a	n/a	n/a	n/a	n/a	1	UoHDataOffsetStream
608.754812	1.701006	nback_2	4335.274455	Steps:2 KeyPress:True Matched:False	0	n/a	2	True	False	n/a	n/a	n/a	n-backMarkers
610.455699	1.701006	nback_2	4336.975342	Steps:2 KeyPress:False Matched:True	0	n/a	2	False	True	n/a	n/a	n/a	n-backMarkers
611.197759	0.004000	dropped_samples	4337.717402	Dropped 1 samples	n/a	n/a	n/a	n/a	n/a	n/a	n/a	1	UoHDataOffsetStream
611.607843	0.040000	dropped_samples	4338.127486	Dropped 10 samples	n/a	n/a	n/a	n/a	n/a	n/a	n/a	10	UoHDataOffsetStream
612.155825	1.701006	nback_2	4338.675468	Steps:2 KeyPress:False Matched:False	1	n/a	2	False	False	n/a	n/a	n/a	n-backMarkers
613.857951	1.701006	nback_2	4340.377594	Steps:2 KeyPress:False Matched:False	1	n/a	2	False	False	n/a	n/a	n/a	n-backMarkers
614.532633	0.004000	dropped_samples	4341.052276	Dropped 1 samples	n/a	n/a	n/a	n/a	n/a	n/a	n/a	1	UoHDataOffsetStream
614.679139	0.012000	dropped_samples	4341.198782	Dropped 3 samples	n/a	n/a	n/a	n/a	n/a	n/a	n/a	3	UoHDataOffsetStream
615.558761	1.701006	nback_2	4342.078404	Steps:2 KeyPress:False Matched:False	1	n/a	2	False	False	n/a	n/a	n/a	n-backMarkers
617.259726	1.701006	nback_2	4343.779369	Steps:2 KeyPress:True Matched:False	0	n/a	2	True	False	n/a	n/a	n/a	n-backMarkers
618.959808	1.701006	nback_2	4345.479451	Steps:2 KeyPress:False Matched:True	0	n/a	2	False	True	n/a	n/a	n/a	n-backMarkers
619.957483	0.004000	dropped_samples	4346.477126	Dropped 1 samples	n/a	n/a	n/a	n/a	n/a	n/a	n/a	1	UoHDataOffsetStream
620.660723	1.701006	nback_2	4347.180366	Steps:2 KeyPress:True Matched:False	0	n/a	2	True	False	n/a	n/a	n/a	n-backMarkers
621.832490	0.012000	dropped_samples	4348.352133	Dropped 3 samples	n/a	n/a	n/a	n/a	n/a	n/a	n/a	3	UoHDataOffsetStream
622.361773	1.701006	nback_2	4348.881416	Steps:2 KeyPress:False Matched:True	0	n/a	2	False	True	n/a	n/a	n/a	n-backMarkers
622.985127	0.004000	dropped_samples	4349.504770	Dropped 1 samples	n/a	n/a	n/a	n/a	n/a	n/a	n/a	1	UoHDataOffsetStream
624.054243	0.004000	dropped_samples	4350.573886	Dropped 1 samples	n/a	n/a	n/a	n/a	n/a	n/a	n/a	1	UoHDataOffsetStream
624.061852	1.701006	nback_2	4350.581495	Steps:2 KeyPress:False Matched:True	0	n/a	2	False	True	n/a	n/a	n/a	n-backMarkers
624.230130	0.012000	dropped_samples	4350.749774	Dropped 3 samples	n/a	n/a	n/a	n/a	n/a	n/a	n/a	3	UoHDataOffsetStream
625.762739	1.701006	nback_2	4352.282382	Steps:2 KeyPress:True Matched:False	0	n/a	2	True	False	n/a	n/a	n/a	n-backMarkers
627.463761	1.701006	nback_2	4353.983404	Steps:2 KeyPress:False Matched:False	1	n/a	2	False	False	n/a	n/a	n/a	n-backMarkers
628.912619	0.012000	dropped_samples	4355.432262	Dropped 3 samples	n/a	n/a	n/a	n/a	n/a	n/a	n/a	3	UoHDataOffsetStream
629.164872	1.701006	nback_2	4355.684515	Steps:2 KeyPress:True Matched:False	0	n/a	2	True	False	n/a	n/a	n/a	n-backMarkers
630.864881	1.701006	nback_2	4357.384524	Steps:2 KeyPress:True Matched:True	1	n/a	2	True	True	n/a	n/a	n/a	n-backMarkers
632.345266	0.008000	dropped_samples	4358.864909	Dropped 2 samples	n/a	n/a	n/a	n/a	n/a	n/a	n/a	2	UoHDataOffsetStream
632.389173	0.008000	dropped_samples	4358.908816	Dropped 2 samples	n/a	n/a	n/a	n/a	n/a	n/a	n/a	2	UoHDataOffsetStream
632.566606	1.701006	nback_2	4359.086249	Steps:2 KeyPress:False Matched:False	1	n/a	2	False	False	n/a	n/a	n/a	n-backMarkers
632.799343	0.028000	dropped_samples	4359.318986	Dropped 7 samples	n/a	n/a	n/a	n/a	n/a	n/a	n/a	7	UoHDataOffsetStream
634.267526	1.701006	nback_2	4360.787170	Steps:2 KeyPress:False Matched:True	0	n/a	2	False	True	n/a	n/a	n/a	n-backMarkers
634.742697	0.004000	dropped_samples	4361.262341	Dropped 1 samples	n/a	n/a	n/a	n/a	n/a	n/a	n/a	1	UoHDataOffsetStream
635.729030	0.004000	dropped_samples	4362.248673	Dropped 1 samples	n/a	n/a	n/a	n/a	n/a	n/a	n/a	1	UoHDataOffsetStream
635.951321	0.012000	dropped_samples	4362.470964	Dropped 3 samples	n/a	n/a	n/a	n/a	n/a	n/a	n/a	3	UoHDataOffsetStream
635.968784	1.701006	nback_2	4362.488427	Steps:2 KeyPress:False Matched:True	0	n/a	2	False	True	n/a	n/a	n/a	n-backMarkers
636.544515	0.004000	dropped_samples	4363.064158	Dropped 1 samples	n/a	n/a	n/a	n/a	n/a	n/a	n/a	1	UoHDataOffsetStream
637.668879	1.701006	nback_2	4364.188522	Steps:2 KeyPress:False Matched:False	1	n/a	2	False	False	n/a	n/a	n/a	n-backMarkers
638.487801	0.004000	dropped_samples	4365.007444	Dropped 1 samples	n/a	n/a	n/a	n/a	n/a	n/a	n/a	1	UoHDataOffsetStream
639.369234	1.701006	nback_2	4365.888877	Steps:2 KeyPress:True Matched:False	0	n/a	2	True	False	n/a	n/a	n/a	n-backMarkers
641.070468	1.701006	nback_2	4367.590111	Steps:2 KeyPress:True Matched:False	0	n/a	2	True	False	n/a	n/a	n/a	n-backMarkers
642.423339	0.004000	dropped_samples	4368.942983	Dropped 1 samples	n/a	n/a	n/a	n/a	n/a	n/a	n/a	1	UoHDataOffsetStream
642.770808	1.701006	nback_2	4369.290452	Steps:2 KeyPress:False Matched:True	0	n/a	2	False	True	n/a	n/a	n/a	n-backMarkers
644.471343	1.701006	nback_2	4370.990986	Steps:2 KeyPress:False Matched:False	1	n/a	2	False	False	n/a	n/a	n/a	n-backMarkers
645.445890	0.004000	dropped_samples	4371.965533	Dropped 1 samples	n/a	n/a	n/a	n/a	n/a	n/a	n/a	1	UoHDataOffsetStream
646.171709	1.701006	nback_2	4372.691353	Steps:2 KeyPress:False Matched:False	1	n/a	2	False	False	n/a	n/a	n/a	n-backMarkers
647.874031	1.701006	nback_2	4374.393674	Steps:2 KeyPress:False Matched:False	1	n/a	2	False	False	n/a	n/a	n/a	n-backMarkers
648.087426	0.004000	dropped_samples	4374.607069	Dropped 1 samples	n/a	n/a	n/a	n/a	n/a	n/a	n/a	1	UoHDataOffsetStream
649.574392	1.701006	nback_2	4376.094035	Steps:2 KeyPress:True Matched:False	0	n/a	2	True	False	n/a	n/a	n/a	n-backMarkers
649.982015	0.008000	dropped_samples	4376.501658	Dropped 2 samples	n/a	n/a	n/a	n/a	n/a	n/a	n/a	2	UoHDataOffsetStream
651.232012	0.004000	dropped_samples	4377.751655	Dropped 1 samples	n/a	n/a	n/a	n/a	n/a	n/a	n/a	1	UoHDataOffsetStream
651.275739	1.701006	nback_2	4377.795382	Steps:2 KeyPress:False Matched:True	0	n/a	2	False	True	n/a	n/a	n/a	n-backMarkers
652.976785	1.701006	nback_2	4379.496428	Steps:2 KeyPress:False Matched:False	1	n/a	2	False	False	n/a	n/a	n/a	n-backMarkers
653.941988	0.012000	dropped_samples	4380.461631	Dropped 3 samples	n/a	n/a	n/a	n/a	n/a	n/a	n/a	3	UoHDataOffsetStream
654.376660	0.004000	dropped_samples	4380.896303	Dropped 1 samples	n/a	n/a	n/a	n/a	n/a	n/a	n/a	1	UoHDataOffsetStream
654.677077	1.701006	nback_2	4381.196720	Steps:2 KeyPress:False Matched:False	1	n/a	2	False	False	n/a	n/a	n/a	n-backMarkers
656.378637	1.701006	nback_2	4382.898280	Steps:2 KeyPress:True Matched:False	0	n/a	2	True	False	n/a	n/a	n/a	n-backMarkers
657.975199	0.004000	dropped_samples	4384.494842	Dropped 1 samples	n/a	n/a	n/a	n/a	n/a	n/a	n/a	1	UoHDataOffsetStream
658.079729	1.701006	nback_2	4384.599372	Steps:2 KeyPress:False Matched:False	1	n/a	2	False	False	n/a	n/a	n/a	n-backMarkers
659.630488	0.012000	dropped_samples	4386.150131	Dropped 3 samples	n/a	n/a	n/a	n/a	n/a	n/a	n/a	3	UoHDataOffsetStream
659.780956	1.701006	nback_2	4386.300599	Steps:2 KeyPress:False Matched:False	1	n/a	2	False	False	n/a	n/a	n/a	n-backMarkers
660.372679	0.016000	dropped_samples	4386.892322	Dropped 4 samples	n/a	n/a	n/a	n/a	n/a	n/a	n/a	4	UoHDataOffsetStream
660.543532	0.004000	dropped_samples	4387.063175	Dropped 1 samples	n/a	n/a	n/a	n/a	n/a	n/a	n/a	1	UoHDataOffsetStream
660.616813	0.004000	dropped_samples	4387.136456	Dropped 1 samples	n/a	n/a	n/a	n/a	n/a	n/a	n/a	1	UoHDataOffsetStream
661.481671	1.701006	nback_2	4388.001314	Steps:2 KeyPress:False Matched:False	1	n/a	2	False	False	n/a	n/a	n/a	n-backMarkers
662.247715	0.004000	dropped_samples	4388.767358	Dropped 1 samples	n/a	n/a	n/a	n/a	n/a	n/a	n/a	1	UoHDataOffsetStream
662.989875	0.004000	dropped_samples	4389.509518	Dropped 1 samples	n/a	n/a	n/a	n/a	n/a	n/a	n/a	1	UoHDataOffsetStream
663.183422	1.701006	nback_2	4389.703065	Steps:2 KeyPress:False Matched:False	1	n/a	2	False	False	n/a	n/a	n/a	n-backMarkers
663.375854	0.004000	dropped_samples	4389.895497	Dropped 1 samples	n/a	n/a	n/a	n/a	n/a	n/a	n/a	1	UoHDataOffsetStream
663.829742	0.012000	dropped_samples	4390.349385	Dropped 3 samples	n/a	n/a	n/a	n/a	n/a	n/a	n/a	3	UoHDataOffsetStream
665.245761	0.004000	dropped_samples	4391.765404	Dropped 1 samples	n/a	n/a	n/a	n/a	n/a	n/a	n/a	1	UoHDataOffsetStream
665.582670	0.004000	dropped_samples	4392.102313	Dropped 1 samples	n/a	n/a	n/a	n/a	n/a	n/a	n/a	1	UoHDataOffsetStream
666.734979	0.012000	dropped_samples	4393.254622	Dropped 3 samples	n/a	n/a	n/a	n/a	n/a	n/a	n/a	3	UoHDataOffsetStream
671.889001	1.701006	nback_3	4398.408644	Steps:3 KeyPress:False Matched:False	1	n/a	3	False	False	n/a	n/a	n/a	n-backMarkers
673.589918	1.701006	nback_3	4400.109561	Steps:3 KeyPress:False Matched:False	1	n/a	3	False	False	n/a	n/a	n/a	n-backMarkers
673.937182	0.020000	dropped_samples	4400.456825	Dropped 5 samples	n/a	n/a	n/a	n/a	n/a	n/a	n/a	5	UoHDataOffsetStream
674.820981	0.024000	dropped_samples	4401.340624	Dropped 6 samples	n/a	n/a	n/a	n/a	n/a	n/a	n/a	6	UoHDataOffsetStream
675.290728	1.701006	nback_3	4401.810371	Steps:3 KeyPress:False Matched:False	1	n/a	3	False	False	n/a	n/a	n/a	n-backMarkers
675.636445	0.012000	dropped_samples	4402.156088	Dropped 3 samples	n/a	n/a	n/a	n/a	n/a	n/a	n/a	3	UoHDataOffsetStream
676.334619	0.004000	dropped_samples	4402.854262	Dropped 1 samples	n/a	n/a	n/a	n/a	n/a	n/a	n/a	1	UoHDataOffsetStream
676.992578	1.701006	nback_3	4403.512221	Steps:3 KeyPress:False Matched:False	1	n/a	3	False	False	n/a	n/a	n/a	n-backMarkers
678.692782	1.701006	nback_3	4405.212425	Steps:3 KeyPress:False Matched:False	1	n/a	3	False	False	n/a	n/a	n/a	n-backMarkers
679.864969	0.012000	dropped_samples	4406.384612	Dropped 3 samples	n/a	n/a	n/a	n/a	n/a	n/a	n/a	3	UoHDataOffsetStream
680.196989	0.004000	dropped_samples	4406.716632	Dropped 1 samples	n/a	n/a	n/a	n/a	n/a	n/a	n/a	1	UoHDataOffsetStream
680.393714	1.701006	nback_3	4406.913357	Steps:3 KeyPress:False Matched:False	1	n/a	3	False	False	n/a	n/a	n/a	n-backMarkers
681.446998	0.004000	dropped_samples	4407.966641	Dropped 1 samples	n/a	n/a	n/a	n/a	n/a	n/a	n/a	1	UoHDataOffsetStream
682.095602	1.701006	nback_3	4408.615245	Steps:3 KeyPress:True Matched:False	0	n/a	3	True	False	n/a	n/a	n/a	n-backMarkers
682.550488	0.008000	dropped_samples	4409.070131	Dropped 2 samples	n/a	n/a	n/a	n/a	n/a	n/a	n/a	2	UoHDataOffsetStream
683.102522	0.008000	dropped_samples	4409.622166	Dropped 2 samples	n/a	n/a	n/a	n/a	n/a	n/a	n/a	2	UoHDataOffsetStream
683.795810	1.701006	nback_3	4410.315453	Steps:3 KeyPress:False Matched:False	1	n/a	3	False	False	n/a	n/a	n/a	n-backMarkers
685.045642	0.004000	dropped_samples	4411.565285	Dropped 1 samples	n/a	n/a	n/a	n/a	n/a	n/a	n/a	1	UoHDataOffsetStream
685.496870	1.701006	nback_3	4412.016514	Steps:3 KeyPress:False Matched:False	1	n/a	3	False	False	n/a	n/a	n/a	n-backMarkers
686.945072	0.008000	dropped_samples	4413.464715	Dropped 2 samples	n/a	n/a	n/a	n/a	n/a	n/a	n/a	2	UoHDataOffsetStream
687.198412	1.701006	nback_3	4413.718055	Steps:3 KeyPress:False Matched:False	1	n/a	3	False	False	n/a	n/a	n/a	n-backMarkers
688.899628	1.701006	nback_3	4415.419271	Steps:3 KeyPress:True Matched:False	0	n/a	3	True	False	n/a	n/a	n/a	n-backMarkers
689.249862	0.004000	dropped_samples	4415.769505	Dropped 1 samples	n/a	n/a	n/a	n/a	n/a	n/a	n/a	1	UoHDataOffsetStream
690.601840	1.701006	nback_3	4417.121483	Steps:3 KeyPress:False Matched:True	0	n/a	3	False	True	n/a	n/a	n/a	n-backMarkers
691.261474	0.004000	dropped_samples	4417.781117	Dropped 1 samples	n/a	n/a	n/a	n/a	n/a	n/a	n/a	1	UoHDataOffsetStream
691.696056	0.004000	dropped_samples	4418.215699	Dropped 1 samples	n/a	n/a	n/a	n/a	n/a	n/a	n/a	1	UoHDataOffsetStream
692.150119	0.012000	dropped_samples	4418.669762	Dropped 3 samples	n/a	n/a	n/a	n/a	n/a	n/a	n/a	3	UoHDataOffsetStream
692.303231	1.701006	nback_3	4418.822874	Steps:3 KeyPress:True Matched:False	0	n/a	3	True	False	n/a	n/a	n/a	n-backMarkers
693.278049	0.008000	dropped_samples	4419.797692	Dropped 2 samples	n/a	n/a	n/a	n/a	n/a	n/a	n/a	2	UoHDataOffsetStream
693.781081	0.044000	dropped_samples	4420.300724	Dropped 11 samples	n/a	n/a	n/a	n/a	n/a	n/a	n/a	11	UoHDataOffsetStream
694.003739	1.701006	nback_3	4420.523382	Steps:3 KeyPress:False Matched:False	1	n/a	3	False	False	n/a	n/a	n/a	n-backMarkers
694.645279	0.004000	dropped_samples	4421.164922	Dropped 1 samples	n/a	n/a	n/a	n/a	n/a	n/a	n/a	1	UoHDataOffsetStream
695.704536	1.701006	nback_3	4422.224179	Steps:3 KeyPress:False Matched:False	1	n/a	3	False	False	n/a	n/a	n/a	n-backMarkers
697.404789	1.701006	nback_3	4423.924432	Steps:3 KeyPress:False Matched:False	1	n/a	3	False	False	n/a	n/a	n/a	n-backMarkers
698.439224	0.008000	dropped_samples	4424.958867	Dropped 2 samples	n/a	n/a	n/a	n/a	n/a	n/a	n/a	2	UoHDataOffsetStream
698.629642	0.004000	dropped_samples	4425.149285	Dropped 1 samples	n/a	n/a	n/a	n/a	n/a	n/a	n/a	1	UoHDataOffsetStream
698.776339	0.004000	dropped_samples	4425.295982	Dropped 1 samples	n/a	n/a	n/a	n/a	n/a	n/a	n/a	1	UoHDataOffsetStream
699.105448	1.701006	nback_3	4425.625091	Steps:3 KeyPress:False Matched:False	1	n/a	3	False	False	n/a	n/a	n/a	n-backMarkers
699.733194	0.012000	dropped_samples	4426.252837	Dropped 3 samples	n/a	n/a	n/a	n/a	n/a	n/a	n/a	3	UoHDataOffsetStream
700.806669	1.701006	nback_3	4427.326312	Steps:3 KeyPress:True Matched:False	0	n/a	3	True	False	n/a	n/a	n/a	n-backMarkers
702.507748	1.701006	nback_3	4429.027391	Steps:3 KeyPress:False Matched:False	1	n/a	3	False	False	n/a	n/a	n/a	n-backMarkers
704.208827	1.701006	nback_3	4430.728470	Steps:3 KeyPress:False Matched:False	1	n/a	3	False	False	n/a	n/a	n/a	n-backMarkers
705.910484	1.701006	nback_3	4432.430127	Steps:3 KeyPress:False Matched:False	1	n/a	3	False	False	n/a	n/a	n/a	n-backMarkers
707.125814	0.004000	dropped_samples	4433.645457	Dropped 1 samples	n/a	n/a	n/a	n/a	n/a	n/a	n/a	1	UoHDataOffsetStream
707.610781	1.701006	nback_3	4434.130424	Steps:3 KeyPress:False Matched:False	1	n/a	3	False	False	n/a	n/a	n/a	n-backMarkers
709.142418	0.004000	dropped_samples	4435.662061	Dropped 1 samples	n/a	n/a	n/a	n/a	n/a	n/a	n/a	1	UoHDataOffsetStream
709.310862	1.701006	nback_3	4435.830505	Steps:3 KeyPress:False Matched:False	1	n/a	3	False	False	n/a	n/a	n/a	n-backMarkers
711.011771	1.701006	nback_3	4437.531414	Steps:3 KeyPress:True Matched:False	0	n/a	3	True	False	n/a	n/a	n/a	n-backMarkers
712.338011	0.004000	dropped_samples	4438.857654	Dropped 1 samples	n/a	n/a	n/a	n/a	n/a	n/a	n/a	1	UoHDataOffsetStream
712.713670	1.701006	nback_3	4439.233313	Steps:3 KeyPress:False Matched:True	0	n/a	3	False	True	n/a	n/a	n/a	n-backMarkers
713.898435	0.004000	dropped_samples	4440.418078	Dropped 1 samples	n/a	n/a	n/a	n/a	n/a	n/a	n/a	1	UoHDataOffsetStream
714.414805	1.701006	nback_3	4440.934448	Steps:3 KeyPress:False Matched:False	1	n/a	3	False	False	n/a	n/a	n/a	n-backMarkers
714.689300	0.004000	dropped_samples	4441.208944	Dropped 1 samples	n/a	n/a	n/a	n/a	n/a	n/a	n/a	1	UoHDataOffsetStream
716.115885	1.701006	nback_3	4442.635528	Steps:3 KeyPress:False Matched:False	1	n/a	3	False	False	n/a	n/a	n/a	n-backMarkers
717.818404	1.701006	nback_3	4444.338047	Steps:3 KeyPress:False Matched:False	1	n/a	3	False	False	n/a	n/a	n/a	n-backMarkers
718.961801	0.012000	dropped_samples	4445.481444	Dropped 3 samples	n/a	n/a	n/a	n/a	n/a	n/a	n/a	3	UoHDataOffsetStream
719.518562	1.701006	nback_3	4446.038205	Steps:3 KeyPress:True Matched:False	0	n/a	3	True	False	n/a	n/a	n/a	n-backMarkers
720.206953	0.004000	dropped_samples	4446.726596	Dropped 1 samples	n/a	n/a	n/a	n/a	n/a	n/a	n/a	1	UoHDataOffsetStream
721.219581	1.701006	nback_3	4447.739225	Steps:3 KeyPress:False Matched:True	0	n/a	3	False	True	n/a	n/a	n/a	n-backMarkers
722.296786	0.004000	dropped_samples	4448.816429	Dropped 1 samples	n/a	n/a	n/a	n/a	n/a	n/a	n/a	1	UoHDataOffsetStream
722.920835	1.701006	nback_3	4449.440478	Steps:3 KeyPress:False Matched:False	1	n/a	3	False	False	n/a	n/a	n/a	n-backMarkers
724.215695	0.012000	dropped_samples	4450.735338	Dropped 3 samples	n/a	n/a	n/a	n/a	n/a	n/a	n/a	3	UoHDataOffsetStream
724.622555	1.701006	nback_3	4451.142198	Steps:3 KeyPress:False Matched:False	1	n/a	3	False	False	n/a	n/a	n/a	n-backMarkers
724.840738	0.012000	dropped_samples	4451.360381	Dropped 3 samples	n/a	n/a	n/a	n/a	n/a	n/a	n/a	3	UoHDataOffsetStream
726.305811	0.004000	dropped_samples	4452.825454	Dropped 1 samples	n/a	n/a	n/a	n/a	n/a	n/a	n/a	1	UoHDataOffsetStream
726.322636	1.701006	nback_3	4452.842279	Steps:3 KeyPress:False Matched:False	1	n/a	3	False	False	n/a	n/a	n/a	n-backMarkers
727.526209	0.004000	dropped_samples	4454.045853	Dropped 1 samples	n/a	n/a	n/a	n/a	n/a	n/a	n/a	1	UoHDataOffsetStream
727.838764	0.008000	dropped_samples	4454.358408	Dropped 2 samples	n/a	n/a	n/a	n/a	n/a	n/a	n/a	2	UoHDataOffsetStream
728.023822	1.701006	nback_3	4454.543465	Steps:3 KeyPress:False Matched:False	1	n/a	3	False	False	n/a	n/a	n/a	n-backMarkers
729.664958	0.012000	dropped_samples	4456.184601	Dropped 3 samples	n/a	n/a	n/a	n/a	n/a	n/a	n/a	3	UoHDataOffsetStream
729.723838	1.701006	nback_3	4456.243481	Steps:3 KeyPress:False Matched:True	0	n/a	3	False	True	n/a	n/a	n/a	n-backMarkers
730.480370	0.004000	dropped_samples	4457.000013	Dropped 1 samples	n/a	n/a	n/a	n/a	n/a	n/a	n/a	1	UoHDataOffsetStream
731.425894	1.701006	nback_3	4457.945537	Steps:3 KeyPress:False Matched:False	1	n/a	3	False	False	n/a	n/a	n/a	n-backMarkers
732.451361	0.004000	dropped_samples	4458.971004	Dropped 1 samples	n/a	n/a	n/a	n/a	n/a	n/a	n/a	1	UoHDataOffsetStream
732.638631	0.012000	dropped_samples	4459.158274	Dropped 3 samples	n/a	n/a	n/a	n/a	n/a	n/a	n/a	3	UoHDataOffsetStream
733.127617	1.701006	nback_3	4459.647260	Steps:3 KeyPress:False Matched:False	1	n/a	3	False	False	n/a	n/a	n/a	n-backMarkers
733.698173	0.008000	dropped_samples	4460.217816	Dropped 2 samples	n/a	n/a	n/a	n/a	n/a	n/a	n/a	2	UoHDataOffsetStream
734.827690	1.701006	nback_3	4461.347333	Steps:3 KeyPress:False Matched:False	1	n/a	3	False	False	n/a	n/a	n/a	n-backMarkers
735.495229	0.012000	dropped_samples	4462.014872	Dropped 3 samples	n/a	n/a	n/a	n/a	n/a	n/a	n/a	3	UoHDataOffsetStream
735.617132	0.008000	dropped_samples	4462.136775	Dropped 2 samples	n/a	n/a	n/a	n/a	n/a	n/a	n/a	2	UoHDataOffsetStream
736.528752	1.701006	nback_3	4463.048396	Steps:3 KeyPress:False Matched:False	1	n/a	3	False	False	n/a	n/a	n/a	n-backMarkers
737.370087	0.004000	dropped_samples	4463.889730	Dropped 1 samples	n/a	n/a	n/a	n/a	n/a	n/a	n/a	1	UoHDataOffsetStream
737.560504	0.012000	dropped_samples	4464.080148	Dropped 3 samples	n/a	n/a	n/a	n/a	n/a	n/a	n/a	3	UoHDataOffsetStream
738.038985	0.012000	dropped_samples	4464.558629	Dropped 3 samples	n/a	n/a	n/a	n/a	n/a	n/a	n/a	3	UoHDataOffsetStream
738.230248	1.701006	nback_3	4464.749891	Steps:3 KeyPress:False Matched:True	0	n/a	3	False	True	n/a	n/a	n/a	n-backMarkers
739.931294	1.701006	nback_3	4466.450937	Steps:3 KeyPress:False Matched:False	1	n/a	3	False	False	n/a	n/a	n/a	n-backMarkers
741.631821	1.701006	nback_3	4468.151465	Steps:3 KeyPress:True Matched:False	0	n/a	3	True	False	n/a	n/a	n/a	n-backMarkers
741.710892	0.012000	dropped_samples	4468.230535	Dropped 3 samples	n/a	n/a	n/a	n/a	n/a	n/a	n/a	3	UoHDataOffsetStream
743.332305	1.701006	nback_3	4469.851948	Steps:3 KeyPress:False Matched:False	1	n/a	3	False	False	n/a	n/a	n/a	n-backMarkers
743.390602	0.012000	dropped_samples	4469.910245	Dropped 3 samples	n/a	n/a	n/a	n/a	n/a	n/a	n/a	3	UoHDataOffsetStream
744.328110	0.004000	dropped_samples	4470.847753	Dropped 1 samples	n/a	n/a	n/a	n/a	n/a	n/a	n/a	1	UoHDataOffsetStream
745.033780	1.701006	nback_3	4471.553423	Steps:3 KeyPress:False Matched:False	1	n/a	3	False	False	n/a	n/a	n/a	n-backMarkers
745.216795	0.004000	dropped_samples	4471.736438	Dropped 1 samples	n/a	n/a	n/a	n/a	n/a	n/a	n/a	1	UoHDataOffsetStream
746.730429	0.012000	dropped_samples	4473.250072	Dropped 3 samples	n/a	n/a	n/a	n/a	n/a	n/a	n/a	3	UoHDataOffsetStream
746.734702	1.701006	nback_3	4473.254345	Steps:3 KeyPress:False Matched:False	1	n/a	3	False	False	n/a	n/a	n/a	n-backMarkers
747.463270	0.004000	dropped_samples	4473.982913	Dropped 1 samples	n/a	n/a	n/a	n/a	n/a	n/a	n/a	1	UoHDataOffsetStream
747.663026	0.012000	dropped_samples	4474.182670	Dropped 3 samples	n/a	n/a	n/a	n/a	n/a	n/a	n/a	3	UoHDataOffsetStream
748.435703	1.701006	nback_3	4474.955346	Steps:3 KeyPress:False Matched:False	1	n/a	3	False	False	n/a	n/a	n/a	n-backMarkers
750.135833	1.701006	nback_3	4476.655476	Steps:3 KeyPress:False Matched:False	1	n/a	3	False	False	n/a	n/a	n/a	n-backMarkers
751.148475	0.004000	dropped_samples	4477.668118	Dropped 1 samples	n/a	n/a	n/a	n/a	n/a	n/a	n/a	1	UoHDataOffsetStream
751.193362	0.012000	dropped_samples	4477.713005	Dropped 3 samples	n/a	n/a	n/a	n/a	n/a	n/a	n/a	3	UoHDataOffsetStream
751.836958	1.701006	nback_3	4478.356601	Steps:3 KeyPress:False Matched:False	1	n/a	3	False	False	n/a	n/a	n/a	n-backMarkers
752.658208	0.012000	dropped_samples	4479.177851	Dropped 3 samples	n/a	n/a	n/a	n/a	n/a	n/a	n/a	3	UoHDataOffsetStream
753.375992	0.012000	dropped_samples	4479.895635	Dropped 3 samples	n/a	n/a	n/a	n/a	n/a	n/a	n/a	3	UoHDataOffsetStream
753.536990	1.701006	nback_3	4480.056633	Steps:3 KeyPress:False Matched:False	1	n/a	3	False	False	n/a	n/a	n/a	n-backMarkers
754.240601	0.012000	dropped_samples	4480.760244	Dropped 3 samples	n/a	n/a	n/a	n/a	n/a	n/a	n/a	3	UoHDataOffsetStream
754.289073	0.008000	dropped_samples	4480.808716	Dropped 2 samples	n/a	n/a	n/a	n/a	n/a	n/a	n/a	2	UoHDataOffsetStream
755.238830	1.701006	nback_3	4481.758473	Steps:3 KeyPress:False Matched:False	1	n/a	3	False	False	n/a	n/a	n/a	n-backMarkers
756.939708	1.701006	nback_3	4483.459351	Steps:3 KeyPress:False Matched:False	1	n/a	3	False	False	n/a	n/a	n/a	n-backMarkers
758.009761	0.004000	dropped_samples	4484.529404	Dropped 1 samples	n/a	n/a	n/a	n/a	n/a	n/a	n/a	1	UoHDataOffsetStream
758.639857	1.701006	nback_3	4485.159500	Steps:3 KeyPress:False Matched:False	1	n/a	3	False	False	n/a	n/a	n/a	n-backMarkers
759.121116	0.012000	dropped_samples	4485.640759	Dropped 3 samples	n/a	n/a	n/a	n/a	n/a	n/a	n/a	3	UoHDataOffsetStream
760.341223	1.701006	nback_3	4486.860866	Steps:3 KeyPress:True Matched:False	0	n/a	3	True	False	n/a	n/a	n/a	n-backMarkers
760.866253	0.012000	dropped_samples	4487.385896	Dropped 3 samples	n/a	n/a	n/a	n/a	n/a	n/a	n/a	3	UoHDataOffsetStream
762.042383	1.701006	nback_3	4488.562026	Steps:3 KeyPress:False Matched:False	1	n/a	3	False	False	n/a	n/a	n/a	n-backMarkers
763.742864	1.701006	nback_3	4490.262507	Steps:3 KeyPress:False Matched:False	1	n/a	3	False	False	n/a	n/a	n/a	n-backMarkers
764.103570	0.004000	dropped_samples	4490.623213	Dropped 1 samples	n/a	n/a	n/a	n/a	n/a	n/a	n/a	1	UoHDataOffsetStream
765.443683	1.701006	nback_3	4491.963326	Steps:3 KeyPress:False Matched:False	1	n/a	3	False	False	n/a	n/a	n/a	n-backMarkers
766.071297	0.004000	dropped_samples	4492.590940	Dropped 1 samples	n/a	n/a	n/a	n/a	n/a	n/a	n/a	1	UoHDataOffsetStream
766.842836	0.004000	dropped_samples	4493.362480	Dropped 1 samples	n/a	n/a	n/a	n/a	n/a	n/a	n/a	1	UoHDataOffsetStream
766.935583	0.004000	dropped_samples	4493.455226	Dropped 1 samples	n/a	n/a	n/a	n/a	n/a	n/a	n/a	1	UoHDataOffsetStream
767.144922	1.701006	nback_3	4493.664565	Steps:3 KeyPress:False Matched:True	0	n/a	3	False	True	n/a	n/a	n/a	n-backMarkers
768.786203	0.004000	dropped_samples	4495.305846	Dropped 1 samples	n/a	n/a	n/a	n/a	n/a	n/a	n/a	1	UoHDataOffsetStream
768.845752	1.701006	nback_3	4495.365395	Steps:3 KeyPress:False Matched:False	1	n/a	3	False	False	n/a	n/a	n/a	n-backMarkers
768.952215	0.012000	dropped_samples	4495.471858	Dropped 3 samples	n/a	n/a	n/a	n/a	n/a	n/a	n/a	3	UoHDataOffsetStream
769.958053	0.012000	dropped_samples	4496.477696	Dropped 3 samples	n/a	n/a	n/a	n/a	n/a	n/a	n/a	3	UoHDataOffsetStream
770.546200	1.701006	nback_3	4497.065844	Steps:3 KeyPress:False Matched:False	1	n/a	3	False	False	n/a	n/a	n/a	n-backMarkers
772.247607	1.701006	nback_3	4498.767250	Steps:3 KeyPress:False Matched:False	1	n/a	3	False	False	n/a	n/a	n/a	n-backMarkers
773.175875	0.012000	dropped_samples	4499.695518	Dropped 3 samples	n/a	n/a	n/a	n/a	n/a	n/a	n/a	3	UoHDataOffsetStream
773.947764	1.701006	nback_3	4500.467407	Steps:3 KeyPress:False Matched:False	1	n/a	3	False	False	n/a	n/a	n/a	n-backMarkers
774.762781	0.012000	dropped_samples	4501.282425	Dropped 3 samples	n/a	n/a	n/a	n/a	n/a	n/a	n/a	3	UoHDataOffsetStream
775.070398	0.004000	dropped_samples	4501.590041	Dropped 1 samples	n/a	n/a	n/a	n/a	n/a	n/a	n/a	1	UoHDataOffsetStream
775.648631	1.701006	nback_3	4502.168274	Steps:3 KeyPress:False Matched:False	1	n/a	3	False	False	n/a	n/a	n/a	n-backMarkers
775.983500	0.004000	dropped_samples	4502.503143	Dropped 1 samples	n/a	n/a	n/a	n/a	n/a	n/a	n/a	1	UoHDataOffsetStream
777.349876	1.701006	nback_3	4503.869519	Steps:3 KeyPress:False Matched:False	1	n/a	3	False	False	n/a	n/a	n/a	n-backMarkers
778.048893	0.004000	dropped_samples	4504.568536	Dropped 1 samples	n/a	n/a	n/a	n/a	n/a	n/a	n/a	1	UoHDataOffsetStream
779.051616	1.701006	nback_3	4505.571259	Steps:3 KeyPress:False Matched:False	1	n/a	3	False	False	n/a	n/a	n/a	n-backMarkers
779.631035	0.012000	dropped_samples	4506.150678	Dropped 3 samples	n/a	n/a	n/a	n/a	n/a	n/a	n/a	3	UoHDataOffsetStream
780.751759	1.701006	nback_3	4507.271402	Steps:3 KeyPress:False Matched:False	1	n/a	3	False	False	n/a	n/a	n/a	n-backMarkers
782.451969	1.701006	nback_3	4508.971612	Steps:3 KeyPress:False Matched:False	1	n/a	3	False	False	n/a	n/a	n/a	n-backMarkers
783.161363	0.012000	dropped_samples	4509.681006	Dropped 3 samples	n/a	n/a	n/a	n/a	n/a	n/a	n/a	3	UoHDataOffsetStream
784.154007	1.701006	nback_3	4510.673651	Steps:3 KeyPress:True Matched:False	0	n/a	3	True	False	n/a	n/a	n/a	n-backMarkers
784.386823	0.012000	dropped_samples	4510.906466	Dropped 3 samples	n/a	n/a	n/a	n/a	n/a	n/a	n/a	3	UoHDataOffsetStream
784.889780	0.004000	dropped_samples	4511.409423	Dropped 1 samples	n/a	n/a	n/a	n/a	n/a	n/a	n/a	1	UoHDataOffsetStream
785.853866	1.701006	nback_3	4512.373509	Steps:3 KeyPress:False Matched:True	0	n/a	3	False	True	n/a	n/a	n/a	n-backMarkers
786.667190	0.008000	dropped_samples	4513.186833	Dropped 2 samples	n/a	n/a	n/a	n/a	n/a	n/a	n/a	2	UoHDataOffsetStream
787.145664	0.012000	dropped_samples	4513.665307	Dropped 3 samples	n/a	n/a	n/a	n/a	n/a	n/a	n/a	3	UoHDataOffsetStream
787.554844	1.701006	nback_3	4514.074488	Steps:3 KeyPress:False Matched:False	1	n/a	3	False	False	n/a	n/a	n/a	n-backMarkers
788.102687	0.012000	dropped_samples	4514.622330	Dropped 3 samples	n/a	n/a	n/a	n/a	n/a	n/a	n/a	3	UoHDataOffsetStream
789.255734	1.701006	nback_3	4515.775377	Steps:3 KeyPress:False Matched:False	1	n/a	3	False	False	n/a	n/a	n/a	n-backMarkers
