onset	duration	trial_type	timestamp_lsl	marker	response_accuracy	difficulty_range	nback_n	keypress	matched	outcome	istutorial	dropped_samples	marker_stream
0.484939	0.004000	dropped_samples	1288.698951	Dropped 1 samples	n/a	n/a	n/a	n/a	n/a	n/a	n/a	1	UoHDataOffsetStream
1.207650	0.012000	dropped_samples	1289.421662	Dropped 3 samples	n/a	n/a	n/a	n/a	n/a	n/a	n/a	3	UoHDataOffsetStream
1.998668	0.004000	dropped_samples	1290.212680	Dropped 1 samples	n/a	n/a	n/a	n/a	n/a	n/a	n/a	1	UoHDataOffsetStream
2.789593	0.004000	dropped_samples	1291.003606	Dropped 1 samples	n/a	n/a	n/a	n/a	n/a	n/a	n/a	1	UoHDataOffsetStream
3.489828	0.004000	dropped_samples	1291.703840	Dropped 1 samples	n/a	n/a	n/a	n/a	n/a	n/a	n/a	1	UoHDataOffsetStream
4.015220	0.008000	dropped_samples	1292.229233	Dropped 2 samples	n/a	n/a	n/a	n/a	n/a	n/a	n/a	2	UoHDataOffsetStream
5.837159	0.004000	dropped_samples	1294.051172	Dropped 1 samples	n/a	n/a	n/a	n/a	n/a	n/a	n/a	1	UoHDataOffsetStream
7.350211	0.012000	dropped_samples	1295.564224	Dropped 3 samples	n/a	n/a	n/a	n/a	n/a	n/a	n/a	3	UoHDataOffsetStream
9.606079	0.004000	dropped_samples	1297.820091	Dropped 1 samples	n/a	n/a	n/a	n/a	n/a	n/a	n/a	1	UoHDataOffsetStream
9.918585	0.004000	dropped_samples	1298.132598	Dropped 1 samples	n/a	n/a	n/a	n/a	n/a	n/a	n/a	1	UoHDataOffsetStream
10.279841	0.004000	dropped_samples	1298.493854	Dropped 1 samples	n/a	n/a	n/a	n/a	n/a	n/a	n/a	1	UoHDataOffsetStream
10.946321	0.000000	started_tutorial_n-back	1299.160333	Started tutorial n-back	n/a	n/a	n/a	n/a	n/a	n/a	n/a	n/a	n-backMarkers
11.549471	0.004000	dropped_samples	1299.763484	Dropped 1 samples	n/a	n/a	n/a	n/a	n/a	n/a	n/a	1	UoHDataOffsetStream
14.093448	0.004000	dropped_samples	1302.307461	Dropped 1 samples	n/a	n/a	n/a	n/a	n/a	n/a	n/a	1	UoHDataOffsetStream
14.576763	0.004000	dropped_samples	1302.790776	Dropped 1 samples	n/a	n/a	n/a	n/a	n/a	n/a	n/a	1	UoHDataOffsetStream
14.791635	0.004000	dropped_samples	1303.005648	Dropped 1 samples	n/a	n/a	n/a	n/a	n/a	n/a	n/a	1	UoHDataOffsetStream
14.908789	0.004000	dropped_samples	1303.122802	Dropped 1 samples	n/a	n/a	n/a	n/a	n/a	n/a	n/a	1	UoHDataOffsetStream
16.876577	0.012000	dropped_samples	1305.090589	Dropped 3 samples	n/a	n/a	n/a	n/a	n/a	n/a	n/a	3	UoHDataOffsetStream
17.936152	0.004000	dropped_samples	1306.150164	Dropped 1 samples	n/a	n/a	n/a	n/a	n/a	n/a	n/a	1	UoHDataOffsetStream
18.585683	0.004000	dropped_samples	1306.799696	Dropped 1 samples	n/a	n/a	n/a	n/a	n/a	n/a	n/a	1	UoHDataOffsetStream
19.830729	0.012000	dropped_samples	1308.044741	Dropped 3 samples	n/a	n/a	n/a	n/a	n/a	n/a	n/a	3	UoHDataOffsetStream
20.358033	0.012000	dropped_samples	1308.572045	Dropped 3 samples	n/a	n/a	n/a	n/a	n/a	n/a	n/a	3	UoHDataOffsetStream
20.983077	0.004000	dropped_samples	1309.197089	Dropped 1 samples	n/a	n/a	n/a	n/a	n/a	n/a	n/a	1	UoHDataOffsetStream
22.135390	0.004000	dropped_samples	1310.349402	Dropped 1 samples	n/a	n/a	n/a	n/a	n/a	n/a	n/a	1	UoHDataOffsetStream
23.141200	0.004000	dropped_samples	1311.355212	Dropped 1 samples	n/a	n/a	n/a	n/a	n/a	n/a	n/a	1	UoHDataOffsetStream
26.168665	0.004000	dropped_samples	1314.382678	Dropped 1 samples	n/a	n/a	n/a	n/a	n/a	n/a	n/a	1	UoHDataOffsetStream
26.793616	0.004000	dropped_samples	1315.007629	Dropped 1 samples	n/a	n/a	n/a	n/a	n/a	n/a	n/a	1	UoHDataOffsetStream
27.511641	0.004000	dropped_samples	1315.725653	Dropped 1 samples	n/a	n/a	n/a	n/a	n/a	n/a	n/a	1	UoHDataOffsetStream
27.609040	0.004000	dropped_samples	1315.823052	Dropped 1 samples	n/a	n/a	n/a	n/a	n/a	n/a	n/a	1	UoHDataOffsetStream
30.030958	0.004000	dropped_samples	1318.244970	Dropped 1 samples	n/a	n/a	n/a	n/a	n/a	n/a	n/a	1	UoHDataOffsetStream
31.232050	0.004000	dropped_samples	1319.446062	Dropped 1 samples	n/a	n/a	n/a	n/a	n/a	n/a	n/a	1	UoHDataOffsetStream
31.373659	0.004000	dropped_samples	1319.587671	Dropped 1 samples	n/a	n/a	n/a	n/a	n/a	n/a	n/a	1	UoHDataOffsetStream
31.612936	0.004000	dropped_samples	1319.826949	Dropped 1 samples	n/a	n/a	n/a	n/a	n/a	n/a	n/a	1	UoHDataOffsetStream
32.623657	0.004000	dropped_samples	1320.837669	Dropped 1 samples	n/a	n/a	n/a	n/a	n/a	n/a	n/a	1	UoHDataOffsetStream
33.561197	0.004000	dropped_samples	1321.775210	Dropped 1 samples	n/a	n/a	n/a	n/a	n/a	n/a	n/a	1	UoHDataOffsetStream
34.401262	0.004000	dropped_samples	1322.615274	Dropped 1 samples	n/a	n/a	n/a	n/a	n/a	n/a	n/a	1	UoHDataOffsetStream
35.240967	0.004000	dropped_samples	1323.454979	Dropped 1 samples	n/a	n/a	n/a	n/a	n/a	n/a	n/a	1	UoHDataOffsetStream
38.190212	0.004000	dropped_samples	1326.404224	Dropped 1 samples	n/a	n/a	n/a	n/a	n/a	n/a	n/a	1	UoHDataOffsetStream
39.845598	0.004000	dropped_samples	1328.059610	Dropped 1 samples	n/a	n/a	n/a	n/a	n/a	n/a	n/a	1	UoHDataOffsetStream
40.421835	0.008000	dropped_samples	1328.635848	Dropped 2 samples	n/a	n/a	n/a	n/a	n/a	n/a	n/a	2	UoHDataOffsetStream
40.665714	0.016000	dropped_samples	1328.879726	Dropped 4 samples	n/a	n/a	n/a	n/a	n/a	n/a	n/a	4	UoHDataOffsetStream
41.671604	0.004000	dropped_samples	1329.885616	Dropped 1 samples	n/a	n/a	n/a	n/a	n/a	n/a	n/a	1	UoHDataOffsetStream
42.941125	0.004000	dropped_samples	1331.155137	Dropped 1 samples	n/a	n/a	n/a	n/a	n/a	n/a	n/a	1	UoHDataOffsetStream
44.601254	0.012000	dropped_samples	1332.815267	Dropped 3 samples	n/a	n/a	n/a	n/a	n/a	n/a	n/a	3	UoHDataOffsetStream
45.294679	0.004000	dropped_samples	1333.508692	Dropped 1 samples	n/a	n/a	n/a	n/a	n/a	n/a	n/a	1	UoHDataOffsetStream
46.256635	0.004000	dropped_samples	1334.470647	Dropped 1 samples	n/a	n/a	n/a	n/a	n/a	n/a	n/a	1	UoHDataOffsetStream
46.686241	0.008000	dropped_samples	1334.900253	Dropped 2 samples	n/a	n/a	n/a	n/a	n/a	n/a	n/a	2	UoHDataOffsetStream
47.404000	0.004000	dropped_samples	1335.618012	Dropped 1 samples	n/a	n/a	n/a	n/a	n/a	n/a	n/a	1	UoHDataOffsetStream
47.696983	0.004000	dropped_samples	1335.910995	Dropped 1 samples	n/a	n/a	n/a	n/a	n/a	n/a	n/a	1	UoHDataOffsetStream
51.295689	0.004000	dropped_samples	1339.509702	Dropped 1 samples	n/a	n/a	n/a	n/a	n/a	n/a	n/a	1	UoHDataOffsetStream
52.711652	0.004000	dropped_samples	1340.925664	Dropped 1 samples	n/a	n/a	n/a	n/a	n/a	n/a	n/a	1	UoHDataOffsetStream
52.833917	0.004000	dropped_samples	1341.047929	Dropped 1 samples	n/a	n/a	n/a	n/a	n/a	n/a	n/a	1	UoHDataOffsetStream
53.600324	0.004000	dropped_samples	1341.814337	Dropped 1 samples	n/a	n/a	n/a	n/a	n/a	n/a	n/a	1	UoHDataOffsetStream
55.807440	0.004000	dropped_samples	1344.021452	Dropped 1 samples	n/a	n/a	n/a	n/a	n/a	n/a	n/a	1	UoHDataOffsetStream
56.769360	0.004000	dropped_samples	1344.983373	Dropped 1 samples	n/a	n/a	n/a	n/a	n/a	n/a	n/a	1	UoHDataOffsetStream
57.369832	0.004000	dropped_samples	1345.583844	Dropped 1 samples	n/a	n/a	n/a	n/a	n/a	n/a	n/a	1	UoHDataOffsetStream
57.775173	0.004000	dropped_samples	1345.989185	Dropped 1 samples	n/a	n/a	n/a	n/a	n/a	n/a	n/a	1	UoHDataOffsetStream
58.185256	0.004000	dropped_samples	1346.399269	Dropped 1 samples	n/a	n/a	n/a	n/a	n/a	n/a	n/a	1	UoHDataOffsetStream
59.381689	0.004000	dropped_samples	1347.595701	Dropped 1 samples	n/a	n/a	n/a	n/a	n/a	n/a	n/a	1	UoHDataOffsetStream
62.008550	0.008000	dropped_samples	1350.222563	Dropped 2 samples	n/a	n/a	n/a	n/a	n/a	n/a	n/a	2	UoHDataOffsetStream
62.745806	0.012000	dropped_samples	1350.959819	Dropped 3 samples	n/a	n/a	n/a	n/a	n/a	n/a	n/a	3	UoHDataOffsetStream
64.089281	0.004000	dropped_samples	1352.303293	Dropped 1 samples	n/a	n/a	n/a	n/a	n/a	n/a	n/a	1	UoHDataOffsetStream
67.424718	0.004000	dropped_samples	1355.638730	Dropped 1 samples	n/a	n/a	n/a	n/a	n/a	n/a	n/a	1	UoHDataOffsetStream
68.121833	0.012000	dropped_samples	1356.335845	Dropped 3 samples	n/a	n/a	n/a	n/a	n/a	n/a	n/a	3	UoHDataOffsetStream
71.573964	0.012000	dropped_samples	1359.787977	Dropped 3 samples	n/a	n/a	n/a	n/a	n/a	n/a	n/a	3	UoHDataOffsetStream
72.823984	0.004000	dropped_samples	1361.037997	Dropped 1 samples	n/a	n/a	n/a	n/a	n/a	n/a	n/a	1	UoHDataOffsetStream
74.840643	0.008000	dropped_samples	1363.054655	Dropped 2 samples	n/a	n/a	n/a	n/a	n/a	n/a	n/a	2	UoHDataOffsetStream
76.832964	0.004000	dropped_samples	1365.046977	Dropped 1 samples	n/a	n/a	n/a	n/a	n/a	n/a	n/a	1	UoHDataOffsetStream
77.947012	1.701006	nback_1	1366.161024	Steps:1 KeyPress:False Matched:False	1	n/a	1	False	False	n/a	n/a	n/a	n-backMarkers
78.561335	0.004000	dropped_samples	1366.775347	Dropped 1 samples	n/a	n/a	n/a	n/a	n/a	n/a	n/a	1	UoHDataOffsetStream
78.825048	0.004000	dropped_samples	1367.039060	Dropped 1 samples	n/a	n/a	n/a	n/a	n/a	n/a	n/a	1	UoHDataOffsetStream
79.567170	0.004000	dropped_samples	1367.781183	Dropped 1 samples	n/a	n/a	n/a	n/a	n/a	n/a	n/a	1	UoHDataOffsetStream
79.649146	1.701006	nback_1	1367.863158	Steps:1 KeyPress:False Matched:False	1	n/a	1	False	False	n/a	n/a	n/a	n-backMarkers
79.830877	0.004000	dropped_samples	1368.044889	Dropped 1 samples	n/a	n/a	n/a	n/a	n/a	n/a	n/a	1	UoHDataOffsetStream
81.351025	1.701006	nback_1	1369.565038	Steps:1 KeyPress:False Matched:False	1	n/a	1	False	False	n/a	n/a	n/a	n-backMarkers
83.053872	1.701006	nback_1	1371.267885	Steps:1 KeyPress:False Matched:True	0	n/a	1	False	True	n/a	n/a	n/a	n-backMarkers
84.755529	1.701006	nback_1	1372.969542	Steps:1 KeyPress:False Matched:False	1	n/a	1	False	False	n/a	n/a	n/a	n-backMarkers
85.449084	0.004000	dropped_samples	1373.663096	Dropped 1 samples	n/a	n/a	n/a	n/a	n/a	n/a	n/a	1	UoHDataOffsetStream
85.568191	0.004000	dropped_samples	1373.782204	Dropped 1 samples	n/a	n/a	n/a	n/a	n/a	n/a	n/a	1	UoHDataOffsetStream
86.456054	1.701006	nback_1	1374.670066	Steps:1 KeyPress:False Matched:True	0	n/a	1	False	True	n/a	n/a	n/a	n-backMarkers
88.156268	1.701006	nback_1	1376.370280	Steps:1 KeyPress:False Matched:True	0	n/a	1	False	True	n/a	n/a	n/a	n-backMarkers
88.160990	0.004000	dropped_samples	1376.375002	Dropped 1 samples	n/a	n/a	n/a	n/a	n/a	n/a	n/a	1	UoHDataOffsetStream
89.362237	0.004000	dropped_samples	1377.576249	Dropped 1 samples	n/a	n/a	n/a	n/a	n/a	n/a	n/a	1	UoHDataOffsetStream
89.858064	1.701006	nback_1	1378.072077	Steps:1 KeyPress:False Matched:True	0	n/a	1	False	True	n/a	n/a	n/a	n-backMarkers
90.656063	0.004000	dropped_samples	1378.870075	Dropped 1 samples	n/a	n/a	n/a	n/a	n/a	n/a	n/a	1	UoHDataOffsetStream
91.560239	1.701006	nback_1	1379.774252	Steps:1 KeyPress:False Matched:True	0	n/a	1	False	True	n/a	n/a	n/a	n-backMarkers
92.047714	0.012000	dropped_samples	1380.261726	Dropped 3 samples	n/a	n/a	n/a	n/a	n/a	n/a	n/a	3	UoHDataOffsetStream
92.960791	0.008000	dropped_samples	1381.174803	Dropped 2 samples	n/a	n/a	n/a	n/a	n/a	n/a	n/a	2	UoHDataOffsetStream
93.077961	0.004000	dropped_samples	1381.291973	Dropped 1 samples	n/a	n/a	n/a	n/a	n/a	n/a	n/a	1	UoHDataOffsetStream
93.260366	1.701006	nback_1	1381.474379	Steps:1 KeyPress:False Matched:False	1	n/a	1	False	False	n/a	n/a	n/a	n-backMarkers
93.273559	0.012000	dropped_samples	1381.487572	Dropped 3 samples	n/a	n/a	n/a	n/a	n/a	n/a	n/a	3	UoHDataOffsetStream
94.855332	0.004000	dropped_samples	1383.069344	Dropped 1 samples	n/a	n/a	n/a	n/a	n/a	n/a	n/a	1	UoHDataOffsetStream
94.960812	1.701006	nback_1	1383.174825	Steps:1 KeyPress:False Matched:False	1	n/a	1	False	False	n/a	n/a	n/a	n-backMarkers
95.578053	0.004000	dropped_samples	1383.792065	Dropped 1 samples	n/a	n/a	n/a	n/a	n/a	n/a	n/a	1	UoHDataOffsetStream
96.442255	0.008000	dropped_samples	1384.656268	Dropped 2 samples	n/a	n/a	n/a	n/a	n/a	n/a	n/a	2	UoHDataOffsetStream
96.664358	1.701006	nback_1	1384.878370	Steps:1 KeyPress:False Matched:True	0	n/a	1	False	True	n/a	n/a	n/a	n-backMarkers
97.877825	0.004000	dropped_samples	1386.091837	Dropped 1 samples	n/a	n/a	n/a	n/a	n/a	n/a	n/a	1	UoHDataOffsetStream
98.367026	1.701006	nback_1	1386.581038	Steps:1 KeyPress:False Matched:True	0	n/a	1	False	True	n/a	n/a	n/a	n-backMarkers
98.815413	0.004000	dropped_samples	1387.029426	Dropped 1 samples	n/a	n/a	n/a	n/a	n/a	n/a	n/a	1	UoHDataOffsetStream
99.079067	0.008000	dropped_samples	1387.293080	Dropped 2 samples	n/a	n/a	n/a	n/a	n/a	n/a	n/a	2	UoHDataOffsetStream
99.826040	0.004000	dropped_samples	1388.040053	Dropped 1 samples	n/a	n/a	n/a	n/a	n/a	n/a	n/a	1	UoHDataOffsetStream
100.067044	1.701006	nback_1	1388.281057	Steps:1 KeyPress:False Matched:False	1	n/a	1	False	False	n/a	n/a	n/a	n-backMarkers
101.768595	1.701006	nback_1	1389.982607	Steps:1 KeyPress:False Matched:False	1	n/a	1	False	False	n/a	n/a	n/a	n-backMarkers
102.872940	0.004000	dropped_samples	1391.086952	Dropped 1 samples	n/a	n/a	n/a	n/a	n/a	n/a	n/a	1	UoHDataOffsetStream
103.471812	1.701006	nback_1	1391.685825	Steps:1 KeyPress:False Matched:False	1	n/a	1	False	False	n/a	n/a	n/a	n-backMarkers
104.118017	0.004000	dropped_samples	1392.332029	Dropped 1 samples	n/a	n/a	n/a	n/a	n/a	n/a	n/a	1	UoHDataOffsetStream
105.173889	1.701006	nback_1	1393.387901	Steps:1 KeyPress:True Matched:True	1	n/a	1	True	True	n/a	n/a	n/a	n-backMarkers
106.256432	0.004000	dropped_samples	1394.470444	Dropped 1 samples	n/a	n/a	n/a	n/a	n/a	n/a	n/a	1	UoHDataOffsetStream
106.876061	1.701006	nback_1	1395.090074	Steps:1 KeyPress:False Matched:False	1	n/a	1	False	False	n/a	n/a	n/a	n-backMarkers
106.906174	0.004000	dropped_samples	1395.120186	Dropped 1 samples	n/a	n/a	n/a	n/a	n/a	n/a	n/a	1	UoHDataOffsetStream
108.151272	0.004000	dropped_samples	1396.365285	Dropped 1 samples	n/a	n/a	n/a	n/a	n/a	n/a	n/a	1	UoHDataOffsetStream
108.577759	1.701006	nback_1	1396.791772	Steps:1 KeyPress:False Matched:False	1	n/a	1	False	False	n/a	n/a	n/a	n-backMarkers
108.898358	0.004000	dropped_samples	1397.112370	Dropped 1 samples	n/a	n/a	n/a	n/a	n/a	n/a	n/a	1	UoHDataOffsetStream
109.904194	0.004000	dropped_samples	1398.118206	Dropped 1 samples	n/a	n/a	n/a	n/a	n/a	n/a	n/a	1	UoHDataOffsetStream
110.278973	1.701006	nback_1	1398.492986	Steps:1 KeyPress:False Matched:False	1	n/a	1	False	False	n/a	n/a	n/a	n-backMarkers
111.981824	1.701006	nback_1	1400.195836	Steps:1 KeyPress:False Matched:False	1	n/a	1	False	False	n/a	n/a	n/a	n-backMarkers
116.911086	0.008000	dropped_samples	1405.125098	Dropped 2 samples	n/a	n/a	n/a	n/a	n/a	n/a	n/a	2	UoHDataOffsetStream
117.897358	0.004000	dropped_samples	1406.111371	Dropped 1 samples	n/a	n/a	n/a	n/a	n/a	n/a	n/a	1	UoHDataOffsetStream
118.976504	0.004000	dropped_samples	1407.190517	Dropped 1 samples	n/a	n/a	n/a	n/a	n/a	n/a	n/a	1	UoHDataOffsetStream
120.691030	1.701006	nback_2	1408.905043	Steps:2 KeyPress:False Matched:False	1	n/a	2	False	False	n/a	n/a	n/a	n-backMarkers
121.906330	0.004000	dropped_samples	1410.120343	Dropped 1 samples	n/a	n/a	n/a	n/a	n/a	n/a	n/a	1	UoHDataOffsetStream
122.394000	1.701006	nback_2	1410.608012	Steps:2 KeyPress:False Matched:False	1	n/a	2	False	False	n/a	n/a	n/a	n-backMarkers
122.985251	0.004000	dropped_samples	1411.199263	Dropped 1 samples	n/a	n/a	n/a	n/a	n/a	n/a	n/a	1	UoHDataOffsetStream
123.200194	0.004000	dropped_samples	1411.414207	Dropped 1 samples	n/a	n/a	n/a	n/a	n/a	n/a	n/a	1	UoHDataOffsetStream
123.991152	0.004000	dropped_samples	1412.205164	Dropped 1 samples	n/a	n/a	n/a	n/a	n/a	n/a	n/a	1	UoHDataOffsetStream
124.094953	1.701006	nback_2	1412.308965	Steps:2 KeyPress:False Matched:False	1	n/a	2	False	False	n/a	n/a	n/a	n-backMarkers
125.002971	0.004000	dropped_samples	1413.216983	Dropped 1 samples	n/a	n/a	n/a	n/a	n/a	n/a	n/a	1	UoHDataOffsetStream
125.143531	0.004000	dropped_samples	1413.357544	Dropped 1 samples	n/a	n/a	n/a	n/a	n/a	n/a	n/a	1	UoHDataOffsetStream
125.338881	0.004000	dropped_samples	1413.552893	Dropped 1 samples	n/a	n/a	n/a	n/a	n/a	n/a	n/a	1	UoHDataOffsetStream
125.796267	1.701006	nback_2	1414.010279	Steps:2 KeyPress:False Matched:False	1	n/a	2	False	False	n/a	n/a	n/a	n-backMarkers
126.007844	0.004000	dropped_samples	1414.221857	Dropped 1 samples	n/a	n/a	n/a	n/a	n/a	n/a	n/a	1	UoHDataOffsetStream
127.497949	1.701006	nback_2	1415.711961	Steps:2 KeyPress:False Matched:False	1	n/a	2	False	False	n/a	n/a	n/a	n-backMarkers
128.024369	0.004000	dropped_samples	1416.238382	Dropped 1 samples	n/a	n/a	n/a	n/a	n/a	n/a	n/a	1	UoHDataOffsetStream
129.199763	1.701006	nback_2	1417.413775	Steps:2 KeyPress:False Matched:False	1	n/a	2	False	False	n/a	n/a	n/a	n-backMarkers
130.901794	1.701006	nback_2	1419.115806	Steps:2 KeyPress:False Matched:False	1	n/a	2	False	False	n/a	n/a	n/a	n-backMarkers
131.046914	0.004000	dropped_samples	1419.260926	Dropped 1 samples	n/a	n/a	n/a	n/a	n/a	n/a	n/a	1	UoHDataOffsetStream
132.057619	0.004000	dropped_samples	1420.271631	Dropped 1 samples	n/a	n/a	n/a	n/a	n/a	n/a	n/a	1	UoHDataOffsetStream
132.605153	1.701006	nback_2	1420.819166	Steps:2 KeyPress:True Matched:False	0	n/a	2	True	False	n/a	n/a	n/a	n-backMarkers
132.897439	0.004000	dropped_samples	1421.111451	Dropped 1 samples	n/a	n/a	n/a	n/a	n/a	n/a	n/a	1	UoHDataOffsetStream
133.209935	0.008000	dropped_samples	1421.423947	Dropped 2 samples	n/a	n/a	n/a	n/a	n/a	n/a	n/a	2	UoHDataOffsetStream
133.712848	0.008000	dropped_samples	1421.926860	Dropped 2 samples	n/a	n/a	n/a	n/a	n/a	n/a	n/a	2	UoHDataOffsetStream
134.093748	0.004000	dropped_samples	1422.307760	Dropped 1 samples	n/a	n/a	n/a	n/a	n/a	n/a	n/a	1	UoHDataOffsetStream
134.307920	1.701006	nback_2	1422.521932	Steps:2 KeyPress:False Matched:True	0	n/a	2	False	True	n/a	n/a	n/a	n-backMarkers
136.008144	1.701006	nback_2	1424.222156	Steps:2 KeyPress:False Matched:False	1	n/a	2	False	False	n/a	n/a	n/a	n-backMarkers
137.710777	1.701006	nback_2	1425.924790	Steps:2 KeyPress:False Matched:False	1	n/a	2	False	False	n/a	n/a	n/a	n-backMarkers
139.137653	0.008000	dropped_samples	1427.351665	Dropped 2 samples	n/a	n/a	n/a	n/a	n/a	n/a	n/a	2	UoHDataOffsetStream
139.412327	1.701006	nback_2	1427.626339	Steps:2 KeyPress:True Matched:False	0	n/a	2	True	False	n/a	n/a	n/a	n-backMarkers
141.113713	1.701006	nback_2	1429.327725	Steps:2 KeyPress:False Matched:True	0	n/a	2	False	True	n/a	n/a	n/a	n-backMarkers
141.843899	0.012000	dropped_samples	1430.057911	Dropped 3 samples	n/a	n/a	n/a	n/a	n/a	n/a	n/a	3	UoHDataOffsetStream
142.814995	1.701006	nback_2	1431.029007	Steps:2 KeyPress:False Matched:False	1	n/a	2	False	False	n/a	n/a	n/a	n-backMarkers
144.201188	0.004000	dropped_samples	1432.415200	Dropped 1 samples	n/a	n/a	n/a	n/a	n/a	n/a	n/a	1	UoHDataOffsetStream
144.517745	1.701006	nback_2	1432.731757	Steps:2 KeyPress:False Matched:True	0	n/a	2	False	True	n/a	n/a	n/a	n-backMarkers
144.967814	0.004000	dropped_samples	1433.181826	Dropped 1 samples	n/a	n/a	n/a	n/a	n/a	n/a	n/a	1	UoHDataOffsetStream
146.220716	1.701006	nback_2	1434.434728	Steps:2 KeyPress:False Matched:False	1	n/a	2	False	False	n/a	n/a	n/a	n-backMarkers
146.359420	0.004000	dropped_samples	1434.573433	Dropped 1 samples	n/a	n/a	n/a	n/a	n/a	n/a	n/a	1	UoHDataOffsetStream
146.598626	0.004000	dropped_samples	1434.812638	Dropped 1 samples	n/a	n/a	n/a	n/a	n/a	n/a	n/a	1	UoHDataOffsetStream
146.818387	0.012000	dropped_samples	1435.032399	Dropped 3 samples	n/a	n/a	n/a	n/a	n/a	n/a	n/a	3	UoHDataOffsetStream
147.775606	0.016000	dropped_samples	1435.989618	Dropped 4 samples	n/a	n/a	n/a	n/a	n/a	n/a	n/a	4	UoHDataOffsetStream
147.921615	1.701006	nback_2	1436.135627	Steps:2 KeyPress:False Matched:False	1	n/a	2	False	False	n/a	n/a	n/a	n-backMarkers
149.622696	1.701006	nback_2	1437.836709	Steps:2 KeyPress:False Matched:False	1	n/a	2	False	False	n/a	n/a	n/a	n-backMarkers
150.863074	0.008000	dropped_samples	1439.077086	Dropped 2 samples	n/a	n/a	n/a	n/a	n/a	n/a	n/a	2	UoHDataOffsetStream
150.895519	0.004000	dropped_samples	1439.109531	Dropped 1 samples	n/a	n/a	n/a	n/a	n/a	n/a	n/a	1	UoHDataOffsetStream
151.323792	1.701006	nback_2	1439.537804	Steps:2 KeyPress:True Matched:False	0	n/a	2	True	False	n/a	n/a	n/a	n-backMarkers
151.593931	0.012000	dropped_samples	1439.807943	Dropped 3 samples	n/a	n/a	n/a	n/a	n/a	n/a	n/a	3	UoHDataOffsetStream
153.025435	1.701006	nback_2	1441.239448	Steps:2 KeyPress:False Matched:False	1	n/a	2	False	False	n/a	n/a	n/a	n-backMarkers
153.297848	0.004000	dropped_samples	1441.511861	Dropped 1 samples	n/a	n/a	n/a	n/a	n/a	n/a	n/a	1	UoHDataOffsetStream
154.303779	0.004000	dropped_samples	1442.517791	Dropped 1 samples	n/a	n/a	n/a	n/a	n/a	n/a	n/a	1	UoHDataOffsetStream
154.689566	0.008000	dropped_samples	1442.903579	Dropped 2 samples	n/a	n/a	n/a	n/a	n/a	n/a	n/a	2	UoHDataOffsetStream
155.290094	0.004000	dropped_samples	1443.504106	Dropped 1 samples	n/a	n/a	n/a	n/a	n/a	n/a	n/a	1	UoHDataOffsetStream
156.320379	0.004000	dropped_samples	1444.534391	Dropped 1 samples	n/a	n/a	n/a	n/a	n/a	n/a	n/a	1	UoHDataOffsetStream
157.334824	0.004000	dropped_samples	1445.548837	Dropped 1 samples	n/a	n/a	n/a	n/a	n/a	n/a	n/a	1	UoHDataOffsetStream
157.545947	0.004000	dropped_samples	1445.759959	Dropped 1 samples	n/a	n/a	n/a	n/a	n/a	n/a	n/a	1	UoHDataOffsetStream
160.041055	0.004000	dropped_samples	1448.255068	Dropped 1 samples	n/a	n/a	n/a	n/a	n/a	n/a	n/a	1	UoHDataOffsetStream
160.592809	0.008000	dropped_samples	1448.806821	Dropped 2 samples	n/a	n/a	n/a	n/a	n/a	n/a	n/a	2	UoHDataOffsetStream
161.726904	1.701006	nback_3	1449.940916	Steps:3 KeyPress:False Matched:False	1	n/a	3	False	False	n/a	n/a	n/a	n-backMarkers
162.465154	0.004000	dropped_samples	1450.679166	Dropped 1 samples	n/a	n/a	n/a	n/a	n/a	n/a	n/a	1	UoHDataOffsetStream
163.014764	0.004000	dropped_samples	1451.228776	Dropped 1 samples	n/a	n/a	n/a	n/a	n/a	n/a	n/a	1	UoHDataOffsetStream
163.427974	1.701006	nback_3	1451.641986	Steps:3 KeyPress:False Matched:False	1	n/a	3	False	False	n/a	n/a	n/a	n-backMarkers
164.025436	0.004000	dropped_samples	1452.239448	Dropped 1 samples	n/a	n/a	n/a	n/a	n/a	n/a	n/a	1	UoHDataOffsetStream
165.129648	1.701006	nback_3	1453.343660	Steps:3 KeyPress:False Matched:False	1	n/a	3	False	False	n/a	n/a	n/a	n-backMarkers
166.830731	1.701006	nback_3	1455.044744	Steps:3 KeyPress:False Matched:False	1	n/a	3	False	False	n/a	n/a	n/a	n-backMarkers
167.721738	0.004000	dropped_samples	1455.935751	Dropped 1 samples	n/a	n/a	n/a	n/a	n/a	n/a	n/a	1	UoHDataOffsetStream
168.439528	0.004000	dropped_samples	1456.653540	Dropped 1 samples	n/a	n/a	n/a	n/a	n/a	n/a	n/a	1	UoHDataOffsetStream
168.531915	1.701006	nback_3	1456.745927	Steps:3 KeyPress:False Matched:False	1	n/a	3	False	False	n/a	n/a	n/a	n-backMarkers
169.064545	0.004000	dropped_samples	1457.278558	Dropped 1 samples	n/a	n/a	n/a	n/a	n/a	n/a	n/a	1	UoHDataOffsetStream
169.450290	0.004000	dropped_samples	1457.664303	Dropped 1 samples	n/a	n/a	n/a	n/a	n/a	n/a	n/a	1	UoHDataOffsetStream
170.232673	1.701006	nback_3	1458.446685	Steps:3 KeyPress:False Matched:True	0	n/a	3	False	True	n/a	n/a	n/a	n-backMarkers
171.779458	0.004000	dropped_samples	1459.993470	Dropped 1 samples	n/a	n/a	n/a	n/a	n/a	n/a	n/a	1	UoHDataOffsetStream
171.933634	1.701006	nback_3	1460.147646	Steps:3 KeyPress:False Matched:False	1	n/a	3	False	False	n/a	n/a	n/a	n-backMarkers
173.634840	1.701006	nback_3	1461.848852	Steps:3 KeyPress:False Matched:False	1	n/a	3	False	False	n/a	n/a	n/a	n-backMarkers
173.937583	0.004000	dropped_samples	1462.151595	Dropped 1 samples	n/a	n/a	n/a	n/a	n/a	n/a	n/a	1	UoHDataOffsetStream
174.513817	0.004000	dropped_samples	1462.727829	Dropped 1 samples	n/a	n/a	n/a	n/a	n/a	n/a	n/a	1	UoHDataOffsetStream
175.335996	1.701006	nback_3	1463.550008	Steps:3 KeyPress:False Matched:False	1	n/a	3	False	False	n/a	n/a	n/a	n-backMarkers
175.544113	0.004000	dropped_samples	1463.758126	Dropped 1 samples	n/a	n/a	n/a	n/a	n/a	n/a	n/a	1	UoHDataOffsetStream
175.714965	0.004000	dropped_samples	1463.928977	Dropped 1 samples	n/a	n/a	n/a	n/a	n/a	n/a	n/a	1	UoHDataOffsetStream
176.130498	0.012000	dropped_samples	1464.344510	Dropped 3 samples	n/a	n/a	n/a	n/a	n/a	n/a	n/a	3	UoHDataOffsetStream
177.036134	1.701006	nback_3	1465.250147	Steps:3 KeyPress:True Matched:False	0	n/a	3	True	False	n/a	n/a	n/a	n-backMarkers
178.571503	0.004000	dropped_samples	1466.785516	Dropped 1 samples	n/a	n/a	n/a	n/a	n/a	n/a	n/a	1	UoHDataOffsetStream
178.737781	1.701006	nback_3	1466.951793	Steps:3 KeyPress:False Matched:True	0	n/a	3	False	True	n/a	n/a	n/a	n-backMarkers
180.080463	0.004000	dropped_samples	1468.294475	Dropped 1 samples	n/a	n/a	n/a	n/a	n/a	n/a	n/a	1	UoHDataOffsetStream
180.438818	1.701006	nback_3	1468.652830	Steps:3 KeyPress:False Matched:False	1	n/a	3	False	False	n/a	n/a	n/a	n-backMarkers
181.784341	0.004000	dropped_samples	1469.998354	Dropped 1 samples	n/a	n/a	n/a	n/a	n/a	n/a	n/a	1	UoHDataOffsetStream
182.023522	0.008000	dropped_samples	1470.237535	Dropped 2 samples	n/a	n/a	n/a	n/a	n/a	n/a	n/a	2	UoHDataOffsetStream
182.141664	1.701006	nback_3	1470.355676	Steps:3 KeyPress:False Matched:False	1	n/a	3	False	False	n/a	n/a	n/a	n-backMarkers
182.311630	0.012000	dropped_samples	1470.525643	Dropped 3 samples	n/a	n/a	n/a	n/a	n/a	n/a	n/a	3	UoHDataOffsetStream
183.058810	0.004000	dropped_samples	1471.272822	Dropped 1 samples	n/a	n/a	n/a	n/a	n/a	n/a	n/a	1	UoHDataOffsetStream
183.703353	0.004000	dropped_samples	1471.917366	Dropped 1 samples	n/a	n/a	n/a	n/a	n/a	n/a	n/a	1	UoHDataOffsetStream
183.843002	1.701006	nback_3	1472.057014	Steps:3 KeyPress:False Matched:False	1	n/a	3	False	False	n/a	n/a	n/a	n-backMarkers
185.544591	1.701006	nback_3	1473.758603	Steps:3 KeyPress:True Matched:False	0	n/a	3	True	False	n/a	n/a	n/a	n-backMarkers
185.627098	0.004000	dropped_samples	1473.841110	Dropped 1 samples	n/a	n/a	n/a	n/a	n/a	n/a	n/a	1	UoHDataOffsetStream
186.632959	0.004000	dropped_samples	1474.846972	Dropped 1 samples	n/a	n/a	n/a	n/a	n/a	n/a	n/a	1	UoHDataOffsetStream
187.244848	1.701006	nback_3	1475.458860	Steps:3 KeyPress:False Matched:True	0	n/a	3	False	True	n/a	n/a	n/a	n-backMarkers
188.527518	0.008000	dropped_samples	1476.741530	Dropped 2 samples	n/a	n/a	n/a	n/a	n/a	n/a	n/a	2	UoHDataOffsetStream
188.946920	1.701006	nback_3	1477.160932	Steps:3 KeyPress:False Matched:False	1	n/a	3	False	False	n/a	n/a	n/a	n-backMarkers
190.650187	1.701006	nback_3	1478.864200	Steps:3 KeyPress:False Matched:False	1	n/a	3	False	False	n/a	n/a	n/a	n-backMarkers
190.666233	0.004000	dropped_samples	1478.880245	Dropped 1 samples	n/a	n/a	n/a	n/a	n/a	n/a	n/a	1	UoHDataOffsetStream
191.935773	0.004000	dropped_samples	1480.149785	Dropped 1 samples	n/a	n/a	n/a	n/a	n/a	n/a	n/a	1	UoHDataOffsetStream
192.353007	1.701006	nback_3	1480.567020	Steps:3 KeyPress:False Matched:False	1	n/a	3	False	False	n/a	n/a	n/a	n-backMarkers
194.055837	1.701006	nback_3	1482.269849	Steps:3 KeyPress:False Matched:False	1	n/a	3	False	False	n/a	n/a	n/a	n-backMarkers
196.090999	0.004000	dropped_samples	1484.305011	Dropped 1 samples	n/a	n/a	n/a	n/a	n/a	n/a	n/a	1	UoHDataOffsetStream
196.979865	0.004000	dropped_samples	1485.193877	Dropped 1 samples	n/a	n/a	n/a	n/a	n/a	n/a	n/a	1	UoHDataOffsetStream
198.107761	0.004000	dropped_samples	1486.321774	Dropped 1 samples	n/a	n/a	n/a	n/a	n/a	n/a	n/a	1	UoHDataOffsetStream
198.874290	0.004000	dropped_samples	1487.088302	Dropped 1 samples	n/a	n/a	n/a	n/a	n/a	n/a	n/a	1	UoHDataOffsetStream
199.977736	0.004000	dropped_samples	1488.191749	Dropped 1 samples	n/a	n/a	n/a	n/a	n/a	n/a	n/a	1	UoHDataOffsetStream
201.418390	0.004000	dropped_samples	1489.632403	Dropped 1 samples	n/a	n/a	n/a	n/a	n/a	n/a	n/a	1	UoHDataOffsetStream
201.803891	0.008000	dropped_samples	1490.017903	Dropped 2 samples	n/a	n/a	n/a	n/a	n/a	n/a	n/a	2	UoHDataOffsetStream
202.755919	1.701006	nback_4	1490.969931	Steps:4 KeyPress:False Matched:False	1	n/a	4	False	False	n/a	n/a	n/a	n-backMarkers
202.834450	0.004000	dropped_samples	1491.048462	Dropped 1 samples	n/a	n/a	n/a	n/a	n/a	n/a	n/a	1	UoHDataOffsetStream
203.122258	0.008000	dropped_samples	1491.336270	Dropped 2 samples	n/a	n/a	n/a	n/a	n/a	n/a	n/a	2	UoHDataOffsetStream
203.845202	0.004000	dropped_samples	1492.059214	Dropped 1 samples	n/a	n/a	n/a	n/a	n/a	n/a	n/a	1	UoHDataOffsetStream
204.103705	0.004000	dropped_samples	1492.317718	Dropped 1 samples	n/a	n/a	n/a	n/a	n/a	n/a	n/a	1	UoHDataOffsetStream
204.456053	1.701006	nback_4	1492.670066	Steps:4 KeyPress:False Matched:False	1	n/a	4	False	False	n/a	n/a	n/a	n-backMarkers
204.850821	0.004000	dropped_samples	1493.064834	Dropped 1 samples	n/a	n/a	n/a	n/a	n/a	n/a	n/a	1	UoHDataOffsetStream
205.139135	0.004000	dropped_samples	1493.353147	Dropped 1 samples	n/a	n/a	n/a	n/a	n/a	n/a	n/a	1	UoHDataOffsetStream
205.641795	0.004000	dropped_samples	1493.855807	Dropped 1 samples	n/a	n/a	n/a	n/a	n/a	n/a	n/a	1	UoHDataOffsetStream
205.905479	0.004000	dropped_samples	1494.119491	Dropped 1 samples	n/a	n/a	n/a	n/a	n/a	n/a	n/a	1	UoHDataOffsetStream
206.120290	0.004000	dropped_samples	1494.334303	Dropped 1 samples	n/a	n/a	n/a	n/a	n/a	n/a	n/a	1	UoHDataOffsetStream
206.157767	1.701006	nback_4	1494.371779	Steps:4 KeyPress:False Matched:False	1	n/a	4	False	False	n/a	n/a	n/a	n-backMarkers
207.859653	1.701006	nback_4	1496.073665	Steps:4 KeyPress:False Matched:True	0	n/a	4	False	True	n/a	n/a	n/a	n-backMarkers
208.258981	0.012000	dropped_samples	1496.472993	Dropped 3 samples	n/a	n/a	n/a	n/a	n/a	n/a	n/a	3	UoHDataOffsetStream
209.559821	1.701006	nback_4	1497.773834	Steps:4 KeyPress:False Matched:True	0	n/a	4	False	True	n/a	n/a	n/a	n-backMarkers
209.914281	0.004000	dropped_samples	1498.128294	Dropped 1 samples	n/a	n/a	n/a	n/a	n/a	n/a	n/a	1	UoHDataOffsetStream
211.260881	1.701006	nback_4	1499.474893	Steps:4 KeyPress:False Matched:False	1	n/a	4	False	False	n/a	n/a	n/a	n-backMarkers
212.963716	1.701006	nback_4	1501.177729	Steps:4 KeyPress:False Matched:False	1	n/a	4	False	False	n/a	n/a	n/a	n-backMarkers
214.665814	1.701006	nback_4	1502.879826	Steps:4 KeyPress:False Matched:False	1	n/a	4	False	False	n/a	n/a	n/a	n-backMarkers
215.002175	0.004000	dropped_samples	1503.216187	Dropped 1 samples	n/a	n/a	n/a	n/a	n/a	n/a	n/a	1	UoHDataOffsetStream
215.312798	0.004000	dropped_samples	1503.526810	Dropped 1 samples	n/a	n/a	n/a	n/a	n/a	n/a	n/a	1	UoHDataOffsetStream
215.314833	0.012000	dropped_samples	1503.528846	Dropped 3 samples	n/a	n/a	n/a	n/a	n/a	n/a	n/a	3	UoHDataOffsetStream
215.431856	0.008000	dropped_samples	1503.645868	Dropped 2 samples	n/a	n/a	n/a	n/a	n/a	n/a	n/a	2	UoHDataOffsetStream
216.366907	1.701006	nback_4	1504.580919	Steps:4 KeyPress:False Matched:True	0	n/a	4	False	True	n/a	n/a	n/a	n-backMarkers
216.804114	0.004000	dropped_samples	1505.018126	Dropped 1 samples	n/a	n/a	n/a	n/a	n/a	n/a	n/a	1	UoHDataOffsetStream
217.018816	0.004000	dropped_samples	1505.232828	Dropped 1 samples	n/a	n/a	n/a	n/a	n/a	n/a	n/a	1	UoHDataOffsetStream
218.068123	1.701006	nback_4	1506.282135	Steps:4 KeyPress:False Matched:True	0	n/a	4	False	True	n/a	n/a	n/a	n-backMarkers
219.768783	1.701006	nback_4	1507.982796	Steps:4 KeyPress:False Matched:False	1	n/a	4	False	False	n/a	n/a	n/a	n-backMarkers
220.140839	0.004000	dropped_samples	1508.354851	Dropped 1 samples	n/a	n/a	n/a	n/a	n/a	n/a	n/a	1	UoHDataOffsetStream
221.469602	1.701006	nback_4	1509.683614	Steps:4 KeyPress:False Matched:False	1	n/a	4	False	False	n/a	n/a	n/a	n-backMarkers
222.155600	0.004000	dropped_samples	1510.369612	Dropped 1 samples	n/a	n/a	n/a	n/a	n/a	n/a	n/a	1	UoHDataOffsetStream
223.171955	1.701006	nback_4	1511.385967	Steps:4 KeyPress:False Matched:False	1	n/a	4	False	False	n/a	n/a	n/a	n-backMarkers
224.099375	0.004000	dropped_samples	1512.313387	Dropped 1 samples	n/a	n/a	n/a	n/a	n/a	n/a	n/a	1	UoHDataOffsetStream
224.479739	0.004000	dropped_samples	1512.693752	Dropped 1 samples	n/a	n/a	n/a	n/a	n/a	n/a	n/a	1	UoHDataOffsetStream
224.872951	1.701006	nback_4	1513.086963	Steps:4 KeyPress:False Matched:True	0	n/a	4	False	True	n/a	n/a	n/a	n-backMarkers
225.993444	0.004000	dropped_samples	1514.207456	Dropped 1 samples	n/a	n/a	n/a	n/a	n/a	n/a	n/a	1	UoHDataOffsetStream
226.573579	1.701006	nback_4	1514.787591	Steps:4 KeyPress:False Matched:False	1	n/a	4	False	False	n/a	n/a	n/a	n-backMarkers
228.273781	1.701006	nback_4	1516.487794	Steps:4 KeyPress:False Matched:False	1	n/a	4	False	False	n/a	n/a	n/a	n-backMarkers
229.787403	0.008000	dropped_samples	1518.001416	Dropped 2 samples	n/a	n/a	n/a	n/a	n/a	n/a	n/a	2	UoHDataOffsetStream
229.953396	0.004000	dropped_samples	1518.167408	Dropped 1 samples	n/a	n/a	n/a	n/a	n/a	n/a	n/a	1	UoHDataOffsetStream
229.975716	1.701006	nback_4	1518.189729	Steps:4 KeyPress:False Matched:False	1	n/a	4	False	False	n/a	n/a	n/a	n-backMarkers
231.677443	1.701006	nback_4	1519.891455	Steps:4 KeyPress:False Matched:True	0	n/a	4	False	True	n/a	n/a	n/a	n-backMarkers
232.185163	0.004000	dropped_samples	1520.399175	Dropped 1 samples	n/a	n/a	n/a	n/a	n/a	n/a	n/a	1	UoHDataOffsetStream
233.380303	1.701006	nback_4	1521.594315	Steps:4 KeyPress:False Matched:False	1	n/a	4	False	False	n/a	n/a	n/a	n-backMarkers
235.082883	1.701006	nback_4	1523.296895	Steps:4 KeyPress:False Matched:False	1	n/a	4	False	False	n/a	n/a	n/a	n-backMarkers
235.163412	0.004000	dropped_samples	1523.377424	Dropped 1 samples	n/a	n/a	n/a	n/a	n/a	n/a	n/a	1	UoHDataOffsetStream
235.789794	0.000000	finished_tutorial_n-back	1524.003806	Finished tutorial n-back	n/a	n/a	n/a	n/a	n/a	n/a	n/a	n/a	n-backMarkers
236.169245	0.004000	dropped_samples	1524.383257	Dropped 1 samples	n/a	n/a	n/a	n/a	n/a	n/a	n/a	1	UoHDataOffsetStream
239.172391	0.004000	dropped_samples	1527.386404	Dropped 1 samples	n/a	n/a	n/a	n/a	n/a	n/a	n/a	1	UoHDataOffsetStream
239.939206	0.004000	dropped_samples	1528.153218	Dropped 1 samples	n/a	n/a	n/a	n/a	n/a	n/a	n/a	1	UoHDataOffsetStream
242.051459	0.004000	dropped_samples	1530.265471	Dropped 1 samples	n/a	n/a	n/a	n/a	n/a	n/a	n/a	1	UoHDataOffsetStream
242.844103	0.004000	dropped_samples	1531.058115	Dropped 1 samples	n/a	n/a	n/a	n/a	n/a	n/a	n/a	1	UoHDataOffsetStream
246.203475	0.004000	dropped_samples	1534.417487	Dropped 1 samples	n/a	n/a	n/a	n/a	n/a	n/a	n/a	1	UoHDataOffsetStream
246.848012	0.004000	dropped_samples	1535.062024	Dropped 1 samples	n/a	n/a	n/a	n/a	n/a	n/a	n/a	1	UoHDataOffsetStream
247.308124	0.004000	dropped_samples	1535.522136	Dropped 1 samples	n/a	n/a	n/a	n/a	n/a	n/a	n/a	1	UoHDataOffsetStream
248.195674	0.004000	dropped_samples	1536.409686	Dropped 1 samples	n/a	n/a	n/a	n/a	n/a	n/a	n/a	1	UoHDataOffsetStream
251.891952	0.004000	dropped_samples	1540.105965	Dropped 1 samples	n/a	n/a	n/a	n/a	n/a	n/a	n/a	1	UoHDataOffsetStream
252.228969	0.004000	dropped_samples	1540.442982	Dropped 1 samples	n/a	n/a	n/a	n/a	n/a	n/a	n/a	1	UoHDataOffsetStream
253.234720	0.004000	dropped_samples	1541.448733	Dropped 1 samples	n/a	n/a	n/a	n/a	n/a	n/a	n/a	1	UoHDataOffsetStream
255.417284	0.004000	dropped_samples	1543.631297	Dropped 1 samples	n/a	n/a	n/a	n/a	n/a	n/a	n/a	1	UoHDataOffsetStream
255.802304	0.000000	started_n-back	1544.016317	Started n-back	n/a	n/a	n/a	n/a	n/a	n/a	n/a	n/a	n-backMarkers
257.069452	0.016000	dropped_samples	1545.283465	Dropped 4 samples	n/a	n/a	n/a	n/a	n/a	n/a	n/a	4	UoHDataOffsetStream
257.075611	0.008000	dropped_samples	1545.289623	Dropped 2 samples	n/a	n/a	n/a	n/a	n/a	n/a	n/a	2	UoHDataOffsetStream
258.224998	0.004000	dropped_samples	1546.439011	Dropped 1 samples	n/a	n/a	n/a	n/a	n/a	n/a	n/a	1	UoHDataOffsetStream
259.260211	0.004000	dropped_samples	1547.474223	Dropped 1 samples	n/a	n/a	n/a	n/a	n/a	n/a	n/a	1	UoHDataOffsetStream
259.523919	0.004000	dropped_samples	1547.737931	Dropped 1 samples	n/a	n/a	n/a	n/a	n/a	n/a	n/a	1	UoHDataOffsetStream
260.793375	0.004000	dropped_samples	1549.007387	Dropped 1 samples	n/a	n/a	n/a	n/a	n/a	n/a	n/a	1	UoHDataOffsetStream
261.056994	0.008000	dropped_samples	1549.271006	Dropped 2 samples	n/a	n/a	n/a	n/a	n/a	n/a	n/a	2	UoHDataOffsetStream
261.559961	0.004000	dropped_samples	1549.773973	Dropped 1 samples	n/a	n/a	n/a	n/a	n/a	n/a	n/a	1	UoHDataOffsetStream
262.258208	0.004000	dropped_samples	1550.472220	Dropped 1 samples	n/a	n/a	n/a	n/a	n/a	n/a	n/a	1	UoHDataOffsetStream
262.834363	0.012000	dropped_samples	1551.048376	Dropped 3 samples	n/a	n/a	n/a	n/a	n/a	n/a	n/a	3	UoHDataOffsetStream
263.025002	0.004000	dropped_samples	1551.239014	Dropped 1 samples	n/a	n/a	n/a	n/a	n/a	n/a	n/a	1	UoHDataOffsetStream
263.264034	0.004000	dropped_samples	1551.478046	Dropped 1 samples	n/a	n/a	n/a	n/a	n/a	n/a	n/a	1	UoHDataOffsetStream
263.802398	1.701006	nback_1	1552.016410	Steps:1 KeyPress:False Matched:False	1	n/a	1	False	False	n/a	n/a	n/a	n-backMarkers
264.391981	0.004000	dropped_samples	1552.605993	Dropped 1 samples	n/a	n/a	n/a	n/a	n/a	n/a	n/a	1	UoHDataOffsetStream
265.212313	0.008000	dropped_samples	1553.426325	Dropped 2 samples	n/a	n/a	n/a	n/a	n/a	n/a	n/a	2	UoHDataOffsetStream
265.256235	0.004000	dropped_samples	1553.470248	Dropped 1 samples	n/a	n/a	n/a	n/a	n/a	n/a	n/a	1	UoHDataOffsetStream
265.503350	1.701006	nback_1	1553.717363	Steps:1 KeyPress:False Matched:False	1	n/a	1	False	False	n/a	n/a	n/a	n-backMarkers
266.818771	0.004000	dropped_samples	1555.032783	Dropped 1 samples	n/a	n/a	n/a	n/a	n/a	n/a	n/a	1	UoHDataOffsetStream
267.204577	1.701006	nback_1	1555.418590	Steps:1 KeyPress:False Matched:False	1	n/a	1	False	False	n/a	n/a	n/a	n-backMarkers
267.683076	0.004000	dropped_samples	1555.897088	Dropped 1 samples	n/a	n/a	n/a	n/a	n/a	n/a	n/a	1	UoHDataOffsetStream
268.351953	0.004000	dropped_samples	1556.565965	Dropped 1 samples	n/a	n/a	n/a	n/a	n/a	n/a	n/a	1	UoHDataOffsetStream
268.906150	1.701006	nback_1	1557.120162	Steps:1 KeyPress:True Matched:True	1	n/a	1	True	True	n/a	n/a	n/a	n-backMarkers
269.626656	0.008000	dropped_samples	1557.840669	Dropped 2 samples	n/a	n/a	n/a	n/a	n/a	n/a	n/a	2	UoHDataOffsetStream
269.675229	0.008000	dropped_samples	1557.889241	Dropped 2 samples	n/a	n/a	n/a	n/a	n/a	n/a	n/a	2	UoHDataOffsetStream
270.180132	0.004000	dropped_samples	1558.394145	Dropped 1 samples	n/a	n/a	n/a	n/a	n/a	n/a	n/a	1	UoHDataOffsetStream
270.607631	1.701006	nback_1	1558.821643	Steps:1 KeyPress:False Matched:False	1	n/a	1	False	False	n/a	n/a	n/a	n-backMarkers
271.354885	0.004000	dropped_samples	1559.568898	Dropped 1 samples	n/a	n/a	n/a	n/a	n/a	n/a	n/a	1	UoHDataOffsetStream
272.308278	1.701006	nback_1	1560.522291	Steps:1 KeyPress:True Matched:False	0	n/a	1	True	False	n/a	n/a	n/a	n-backMarkers
274.009410	1.701006	nback_1	1562.223422	Steps:1 KeyPress:False Matched:False	1	n/a	1	False	False	n/a	n/a	n/a	n-backMarkers
275.709955	1.701006	nback_1	1563.923968	Steps:1 KeyPress:True Matched:False	0	n/a	1	True	False	n/a	n/a	n/a	n-backMarkers
275.720378	0.032000	dropped_samples	1563.934391	Dropped 8 samples	n/a	n/a	n/a	n/a	n/a	n/a	n/a	8	UoHDataOffsetStream
276.369574	0.004000	dropped_samples	1564.583586	Dropped 1 samples	n/a	n/a	n/a	n/a	n/a	n/a	n/a	1	UoHDataOffsetStream
277.411903	1.701006	nback_1	1565.625915	Steps:1 KeyPress:False Matched:True	0	n/a	1	False	True	n/a	n/a	n/a	n-backMarkers
278.410710	0.004000	dropped_samples	1566.624722	Dropped 1 samples	n/a	n/a	n/a	n/a	n/a	n/a	n/a	1	UoHDataOffsetStream
279.108824	0.004000	dropped_samples	1567.322836	Dropped 1 samples	n/a	n/a	n/a	n/a	n/a	n/a	n/a	1	UoHDataOffsetStream
279.113370	1.701006	nback_1	1567.327382	Steps:1 KeyPress:False Matched:True	0	n/a	1	False	True	n/a	n/a	n/a	n-backMarkers
280.814066	1.701006	nback_1	1569.028078	Steps:1 KeyPress:False Matched:False	1	n/a	1	False	False	n/a	n/a	n/a	n-backMarkers
281.433019	0.004000	dropped_samples	1569.647032	Dropped 1 samples	n/a	n/a	n/a	n/a	n/a	n/a	n/a	1	UoHDataOffsetStream
282.514705	1.701006	nback_1	1570.728718	Steps:1 KeyPress:False Matched:True	0	n/a	1	False	True	n/a	n/a	n/a	n-backMarkers
282.800235	0.008000	dropped_samples	1571.014248	Dropped 2 samples	n/a	n/a	n/a	n/a	n/a	n/a	n/a	2	UoHDataOffsetStream
283.664487	0.004000	dropped_samples	1571.878499	Dropped 1 samples	n/a	n/a	n/a	n/a	n/a	n/a	n/a	1	UoHDataOffsetStream
283.859797	0.004000	dropped_samples	1572.073810	Dropped 1 samples	n/a	n/a	n/a	n/a	n/a	n/a	n/a	1	UoHDataOffsetStream
284.215495	1.701006	nback_1	1572.429507	Steps:1 KeyPress:False Matched:False	1	n/a	1	False	False	n/a	n/a	n/a	n-backMarkers
285.900841	0.004000	dropped_samples	1574.114853	Dropped 1 samples	n/a	n/a	n/a	n/a	n/a	n/a	n/a	1	UoHDataOffsetStream
285.916230	1.701006	nback_1	1574.130242	Steps:1 KeyPress:True Matched:True	1	n/a	1	True	True	n/a	n/a	n/a	n-backMarkers
286.496533	0.004000	dropped_samples	1574.710545	Dropped 1 samples	n/a	n/a	n/a	n/a	n/a	n/a	n/a	1	UoHDataOffsetStream
287.616301	1.701006	nback_1	1575.830313	Steps:1 KeyPress:False Matched:True	0	n/a	1	False	True	n/a	n/a	n/a	n-backMarkers
288.513116	0.004000	dropped_samples	1576.727128	Dropped 1 samples	n/a	n/a	n/a	n/a	n/a	n/a	n/a	1	UoHDataOffsetStream
288.996572	0.008000	dropped_samples	1577.210584	Dropped 2 samples	n/a	n/a	n/a	n/a	n/a	n/a	n/a	2	UoHDataOffsetStream
289.317795	1.701006	nback_1	1577.531807	Steps:1 KeyPress:False Matched:False	1	n/a	1	False	False	n/a	n/a	n/a	n-backMarkers
290.529718	0.004000	dropped_samples	1578.743731	Dropped 1 samples	n/a	n/a	n/a	n/a	n/a	n/a	n/a	1	UoHDataOffsetStream
291.018686	1.701006	nback_1	1579.232698	Steps:1 KeyPress:True Matched:False	0	n/a	1	True	False	n/a	n/a	n/a	n-backMarkers
292.719025	1.701006	nback_1	1580.933037	Steps:1 KeyPress:False Matched:False	1	n/a	1	False	False	n/a	n/a	n/a	n-backMarkers
293.576638	0.004000	dropped_samples	1581.790650	Dropped 1 samples	n/a	n/a	n/a	n/a	n/a	n/a	n/a	1	UoHDataOffsetStream
294.084520	0.004000	dropped_samples	1582.298532	Dropped 1 samples	n/a	n/a	n/a	n/a	n/a	n/a	n/a	1	UoHDataOffsetStream
294.419866	1.701006	nback_1	1582.633878	Steps:1 KeyPress:True Matched:False	0	n/a	1	True	False	n/a	n/a	n/a	n-backMarkers
294.489803	0.004000	dropped_samples	1582.703816	Dropped 1 samples	n/a	n/a	n/a	n/a	n/a	n/a	n/a	1	UoHDataOffsetStream
296.120357	1.701006	nback_1	1584.334370	Steps:1 KeyPress:False Matched:False	1	n/a	1	False	False	n/a	n/a	n/a	n-backMarkers
296.433045	0.012000	dropped_samples	1584.647057	Dropped 3 samples	n/a	n/a	n/a	n/a	n/a	n/a	n/a	3	UoHDataOffsetStream
296.603981	0.004000	dropped_samples	1584.817994	Dropped 1 samples	n/a	n/a	n/a	n/a	n/a	n/a	n/a	1	UoHDataOffsetStream
296.773100	0.012000	dropped_samples	1584.987112	Dropped 3 samples	n/a	n/a	n/a	n/a	n/a	n/a	n/a	3	UoHDataOffsetStream
297.629381	0.004000	dropped_samples	1585.843393	Dropped 1 samples	n/a	n/a	n/a	n/a	n/a	n/a	n/a	1	UoHDataOffsetStream
297.821279	1.701006	nback_1	1586.035292	Steps:1 KeyPress:True Matched:False	0	n/a	1	True	False	n/a	n/a	n/a	n-backMarkers
299.521506	1.701006	nback_1	1587.735518	Steps:1 KeyPress:False Matched:False	1	n/a	1	False	False	n/a	n/a	n/a	n-backMarkers
300.656871	0.004000	dropped_samples	1588.870883	Dropped 1 samples	n/a	n/a	n/a	n/a	n/a	n/a	n/a	1	UoHDataOffsetStream
301.222346	1.701006	nback_1	1589.436358	Steps:1 KeyPress:True Matched:False	0	n/a	1	True	False	n/a	n/a	n/a	n-backMarkers
301.955613	0.008000	dropped_samples	1590.169625	Dropped 2 samples	n/a	n/a	n/a	n/a	n/a	n/a	n/a	2	UoHDataOffsetStream
302.893056	0.008000	dropped_samples	1591.107069	Dropped 2 samples	n/a	n/a	n/a	n/a	n/a	n/a	n/a	2	UoHDataOffsetStream
302.923286	1.701006	nback_1	1591.137298	Steps:1 KeyPress:False Matched:False	1	n/a	1	False	False	n/a	n/a	n/a	n-backMarkers
304.624373	1.701006	nback_1	1592.838385	Steps:1 KeyPress:True Matched:False	0	n/a	1	True	False	n/a	n/a	n/a	n-backMarkers
304.739017	0.004000	dropped_samples	1592.953029	Dropped 1 samples	n/a	n/a	n/a	n/a	n/a	n/a	n/a	1	UoHDataOffsetStream
304.978035	0.004000	dropped_samples	1593.192048	Dropped 1 samples	n/a	n/a	n/a	n/a	n/a	n/a	n/a	1	UoHDataOffsetStream
305.290553	0.004000	dropped_samples	1593.504565	Dropped 1 samples	n/a	n/a	n/a	n/a	n/a	n/a	n/a	1	UoHDataOffsetStream
306.326205	1.701006	nback_1	1594.540218	Steps:1 KeyPress:False Matched:False	1	n/a	1	False	False	n/a	n/a	n/a	n-backMarkers
308.027445	1.701006	nback_1	1596.241457	Steps:1 KeyPress:True Matched:False	0	n/a	1	True	False	n/a	n/a	n/a	n-backMarkers
309.226172	0.004000	dropped_samples	1597.440184	Dropped 1 samples	n/a	n/a	n/a	n/a	n/a	n/a	n/a	1	UoHDataOffsetStream
309.727547	1.701006	nback_1	1597.941560	Steps:1 KeyPress:False Matched:False	1	n/a	1	False	False	n/a	n/a	n/a	n-backMarkers
311.428649	1.701006	nback_1	1599.642661	Steps:1 KeyPress:True Matched:False	0	n/a	1	True	False	n/a	n/a	n/a	n-backMarkers
313.129296	1.701006	nback_1	1601.343309	Steps:1 KeyPress:False Matched:True	0	n/a	1	False	True	n/a	n/a	n/a	n-backMarkers
313.811104	0.004000	dropped_samples	1602.025117	Dropped 1 samples	n/a	n/a	n/a	n/a	n/a	n/a	n/a	1	UoHDataOffsetStream
314.831590	1.701006	nback_1	1603.045603	Steps:1 KeyPress:False Matched:True	0	n/a	1	False	True	n/a	n/a	n/a	n-backMarkers
316.532311	1.701006	nback_1	1604.746323	Steps:1 KeyPress:False Matched:False	1	n/a	1	False	False	n/a	n/a	n/a	n-backMarkers
318.108082	0.004000	dropped_samples	1606.322095	Dropped 1 samples	n/a	n/a	n/a	n/a	n/a	n/a	n/a	1	UoHDataOffsetStream
318.234280	1.701006	nback_1	1606.448292	Steps:1 KeyPress:True Matched:False	0	n/a	1	True	False	n/a	n/a	n/a	n-backMarkers
319.089722	0.012000	dropped_samples	1607.303734	Dropped 3 samples	n/a	n/a	n/a	n/a	n/a	n/a	n/a	3	UoHDataOffsetStream
319.936011	1.701006	nback_1	1608.150024	Steps:1 KeyPress:False Matched:True	0	n/a	1	False	True	n/a	n/a	n/a	n-backMarkers
321.637452	1.701006	nback_1	1609.851464	Steps:1 KeyPress:False Matched:False	1	n/a	1	False	False	n/a	n/a	n/a	n-backMarkers
323.339357	1.701006	nback_1	1611.553369	Steps:1 KeyPress:True Matched:False	0	n/a	1	True	False	n/a	n/a	n/a	n-backMarkers
325.040406	1.701006	nback_1	1613.254418	Steps:1 KeyPress:False Matched:False	1	n/a	1	False	False	n/a	n/a	n/a	n-backMarkers
325.305210	0.008000	dropped_samples	1613.519222	Dropped 2 samples	n/a	n/a	n/a	n/a	n/a	n/a	n/a	2	UoHDataOffsetStream
326.741367	1.701006	nback_1	1614.955379	Steps:1 KeyPress:True Matched:False	0	n/a	1	True	False	n/a	n/a	n/a	n-backMarkers
327.517206	0.004000	dropped_samples	1615.731219	Dropped 1 samples	n/a	n/a	n/a	n/a	n/a	n/a	n/a	1	UoHDataOffsetStream
328.308194	0.004000	dropped_samples	1616.522206	Dropped 1 samples	n/a	n/a	n/a	n/a	n/a	n/a	n/a	1	UoHDataOffsetStream
328.442334	1.701006	nback_1	1616.656347	Steps:1 KeyPress:False Matched:False	1	n/a	1	False	False	n/a	n/a	n/a	n-backMarkers
329.724213	0.012000	dropped_samples	1617.938225	Dropped 3 samples	n/a	n/a	n/a	n/a	n/a	n/a	n/a	3	UoHDataOffsetStream
329.914639	0.004000	dropped_samples	1618.128651	Dropped 1 samples	n/a	n/a	n/a	n/a	n/a	n/a	n/a	1	UoHDataOffsetStream
330.142472	1.701006	nback_1	1618.356484	Steps:1 KeyPress:True Matched:False	0	n/a	1	True	False	n/a	n/a	n/a	n-backMarkers
331.018192	0.004000	dropped_samples	1619.232204	Dropped 1 samples	n/a	n/a	n/a	n/a	n/a	n/a	n/a	1	UoHDataOffsetStream
331.115928	0.004000	dropped_samples	1619.329940	Dropped 1 samples	n/a	n/a	n/a	n/a	n/a	n/a	n/a	1	UoHDataOffsetStream
331.844147	1.701006	nback_1	1620.058159	Steps:1 KeyPress:False Matched:False	1	n/a	1	False	False	n/a	n/a	n/a	n-backMarkers
332.031081	0.004000	dropped_samples	1620.245093	Dropped 1 samples	n/a	n/a	n/a	n/a	n/a	n/a	n/a	1	UoHDataOffsetStream
333.544936	1.701006	nback_1	1621.758949	Steps:1 KeyPress:True Matched:False	0	n/a	1	True	False	n/a	n/a	n/a	n-backMarkers
333.923451	0.008000	dropped_samples	1622.137463	Dropped 2 samples	n/a	n/a	n/a	n/a	n/a	n/a	n/a	2	UoHDataOffsetStream
334.065035	0.004000	dropped_samples	1622.279048	Dropped 1 samples	n/a	n/a	n/a	n/a	n/a	n/a	n/a	1	UoHDataOffsetStream
335.245343	1.701006	nback_1	1623.459355	Steps:1 KeyPress:False Matched:True	0	n/a	1	False	True	n/a	n/a	n/a	n-backMarkers
335.627509	0.008000	dropped_samples	1623.841521	Dropped 2 samples	n/a	n/a	n/a	n/a	n/a	n/a	n/a	2	UoHDataOffsetStream
336.946283	1.701006	nback_1	1625.160295	Steps:1 KeyPress:False Matched:False	1	n/a	1	False	False	n/a	n/a	n/a	n-backMarkers
338.646352	1.701006	nback_1	1626.860364	Steps:1 KeyPress:True Matched:False	0	n/a	1	True	False	n/a	n/a	n/a	n-backMarkers
338.889241	0.004000	dropped_samples	1627.103253	Dropped 1 samples	n/a	n/a	n/a	n/a	n/a	n/a	n/a	1	UoHDataOffsetStream
340.346473	1.701006	nback_1	1628.560486	Steps:1 KeyPress:False Matched:True	0	n/a	1	False	True	n/a	n/a	n/a	n-backMarkers
340.813120	0.004000	dropped_samples	1629.027132	Dropped 1 samples	n/a	n/a	n/a	n/a	n/a	n/a	n/a	1	UoHDataOffsetStream
342.048157	1.701006	nback_1	1630.262170	Steps:1 KeyPress:False Matched:True	0	n/a	1	False	True	n/a	n/a	n/a	n-backMarkers
342.995697	0.004000	dropped_samples	1631.209710	Dropped 1 samples	n/a	n/a	n/a	n/a	n/a	n/a	n/a	1	UoHDataOffsetStream
343.748306	1.701006	nback_1	1631.962318	Steps:1 KeyPress:False Matched:False	1	n/a	1	False	False	n/a	n/a	n/a	n-backMarkers
344.172536	0.004000	dropped_samples	1632.386548	Dropped 1 samples	n/a	n/a	n/a	n/a	n/a	n/a	n/a	1	UoHDataOffsetStream
344.387353	0.004000	dropped_samples	1632.601365	Dropped 1 samples	n/a	n/a	n/a	n/a	n/a	n/a	n/a	1	UoHDataOffsetStream
345.449360	1.701006	nback_1	1633.663372	Steps:1 KeyPress:True Matched:False	0	n/a	1	True	False	n/a	n/a	n/a	n-backMarkers
347.150392	1.701006	nback_1	1635.364404	Steps:1 KeyPress:False Matched:False	1	n/a	1	False	False	n/a	n/a	n/a	n-backMarkers
347.219461	0.004000	dropped_samples	1635.433473	Dropped 1 samples	n/a	n/a	n/a	n/a	n/a	n/a	n/a	1	UoHDataOffsetStream
348.851685	1.701006	nback_1	1637.065697	Steps:1 KeyPress:True Matched:False	0	n/a	1	True	False	n/a	n/a	n/a	n-backMarkers
349.021148	0.008000	dropped_samples	1637.235161	Dropped 2 samples	n/a	n/a	n/a	n/a	n/a	n/a	n/a	2	UoHDataOffsetStream
350.241959	0.004000	dropped_samples	1638.455971	Dropped 1 samples	n/a	n/a	n/a	n/a	n/a	n/a	n/a	1	UoHDataOffsetStream
350.552538	1.701006	nback_1	1638.766550	Steps:1 KeyPress:False Matched:False	1	n/a	1	False	False	n/a	n/a	n/a	n-backMarkers
350.749863	0.012000	dropped_samples	1638.963876	Dropped 3 samples	n/a	n/a	n/a	n/a	n/a	n/a	n/a	3	UoHDataOffsetStream
351.228185	0.008000	dropped_samples	1639.442198	Dropped 2 samples	n/a	n/a	n/a	n/a	n/a	n/a	n/a	2	UoHDataOffsetStream
352.253254	1.701006	nback_1	1640.467267	Steps:1 KeyPress:True Matched:False	0	n/a	1	True	False	n/a	n/a	n/a	n-backMarkers
352.644175	0.004000	dropped_samples	1640.858187	Dropped 1 samples	n/a	n/a	n/a	n/a	n/a	n/a	n/a	1	UoHDataOffsetStream
353.244822	0.008000	dropped_samples	1641.458834	Dropped 2 samples	n/a	n/a	n/a	n/a	n/a	n/a	n/a	2	UoHDataOffsetStream
353.581720	0.008000	dropped_samples	1641.795733	Dropped 2 samples	n/a	n/a	n/a	n/a	n/a	n/a	n/a	2	UoHDataOffsetStream
353.953947	1.701006	nback_1	1642.167959	Steps:1 KeyPress:False Matched:False	1	n/a	1	False	False	n/a	n/a	n/a	n-backMarkers
354.372718	0.008000	dropped_samples	1642.586730	Dropped 2 samples	n/a	n/a	n/a	n/a	n/a	n/a	n/a	2	UoHDataOffsetStream
354.875698	0.004000	dropped_samples	1643.089711	Dropped 1 samples	n/a	n/a	n/a	n/a	n/a	n/a	n/a	1	UoHDataOffsetStream
355.655121	1.701006	nback_1	1643.869134	Steps:1 KeyPress:True Matched:False	0	n/a	1	True	False	n/a	n/a	n/a	n-backMarkers
357.355838	1.701006	nback_1	1645.569851	Steps:1 KeyPress:False Matched:True	0	n/a	1	False	True	n/a	n/a	n/a	n-backMarkers
358.332696	0.004000	dropped_samples	1646.546708	Dropped 1 samples	n/a	n/a	n/a	n/a	n/a	n/a	n/a	1	UoHDataOffsetStream
359.056494	1.701006	nback_1	1647.270506	Steps:1 KeyPress:False Matched:True	0	n/a	1	False	True	n/a	n/a	n/a	n-backMarkers
360.758263	1.701006	nback_1	1648.972275	Steps:1 KeyPress:False Matched:False	1	n/a	1	False	False	n/a	n/a	n/a	n-backMarkers
362.458429	1.701006	nback_1	1650.672441	Steps:1 KeyPress:False Matched:False	1	n/a	1	False	False	n/a	n/a	n/a	n-backMarkers
363.396193	0.004000	dropped_samples	1651.610205	Dropped 1 samples	n/a	n/a	n/a	n/a	n/a	n/a	n/a	1	UoHDataOffsetStream
363.562288	0.004000	dropped_samples	1651.776300	Dropped 1 samples	n/a	n/a	n/a	n/a	n/a	n/a	n/a	1	UoHDataOffsetStream
364.159845	1.701006	nback_1	1652.373857	Steps:1 KeyPress:True Matched:False	0	n/a	1	True	False	n/a	n/a	n/a	n-backMarkers
364.402064	0.004000	dropped_samples	1652.616077	Dropped 1 samples	n/a	n/a	n/a	n/a	n/a	n/a	n/a	1	UoHDataOffsetStream
364.831722	0.008000	dropped_samples	1653.045735	Dropped 2 samples	n/a	n/a	n/a	n/a	n/a	n/a	n/a	2	UoHDataOffsetStream
365.413985	0.004000	dropped_samples	1653.627997	Dropped 1 samples	n/a	n/a	n/a	n/a	n/a	n/a	n/a	1	UoHDataOffsetStream
365.486052	0.004000	dropped_samples	1653.700064	Dropped 1 samples	n/a	n/a	n/a	n/a	n/a	n/a	n/a	1	UoHDataOffsetStream
365.793816	0.008000	dropped_samples	1654.007829	Dropped 2 samples	n/a	n/a	n/a	n/a	n/a	n/a	n/a	2	UoHDataOffsetStream
365.859675	1.701006	nback_1	1654.073687	Steps:1 KeyPress:False Matched:False	1	n/a	1	False	False	n/a	n/a	n/a	n-backMarkers
366.418662	0.004000	dropped_samples	1654.632674	Dropped 1 samples	n/a	n/a	n/a	n/a	n/a	n/a	n/a	1	UoHDataOffsetStream
367.258558	0.004000	dropped_samples	1655.472570	Dropped 1 samples	n/a	n/a	n/a	n/a	n/a	n/a	n/a	1	UoHDataOffsetStream
367.429423	0.004000	dropped_samples	1655.643436	Dropped 1 samples	n/a	n/a	n/a	n/a	n/a	n/a	n/a	1	UoHDataOffsetStream
367.561329	1.701006	nback_1	1655.775341	Steps:1 KeyPress:True Matched:False	0	n/a	1	True	False	n/a	n/a	n/a	n-backMarkers
369.262310	1.701006	nback_1	1657.476322	Steps:1 KeyPress:False Matched:True	0	n/a	1	False	True	n/a	n/a	n/a	n-backMarkers
370.963182	1.701006	nback_1	1659.177194	Steps:1 KeyPress:False Matched:False	1	n/a	1	False	False	n/a	n/a	n/a	n-backMarkers
371.941103	0.008000	dropped_samples	1660.155115	Dropped 2 samples	n/a	n/a	n/a	n/a	n/a	n/a	n/a	2	UoHDataOffsetStream
372.664201	1.701006	nback_1	1660.878213	Steps:1 KeyPress:True Matched:False	0	n/a	1	True	False	n/a	n/a	n/a	n-backMarkers
373.498760	0.004000	dropped_samples	1661.712773	Dropped 1 samples	n/a	n/a	n/a	n/a	n/a	n/a	n/a	1	UoHDataOffsetStream
374.366143	1.701006	nback_1	1662.580155	Steps:1 KeyPress:False Matched:True	0	n/a	1	False	True	n/a	n/a	n/a	n-backMarkers
375.041154	0.004000	dropped_samples	1663.255167	Dropped 1 samples	n/a	n/a	n/a	n/a	n/a	n/a	n/a	1	UoHDataOffsetStream
376.067715	1.701006	nback_1	1664.281728	Steps:1 KeyPress:False Matched:True	0	n/a	1	False	True	n/a	n/a	n/a	n-backMarkers
376.501737	0.004000	dropped_samples	1664.715750	Dropped 1 samples	n/a	n/a	n/a	n/a	n/a	n/a	n/a	1	UoHDataOffsetStream
377.146242	0.004000	dropped_samples	1665.360254	Dropped 1 samples	n/a	n/a	n/a	n/a	n/a	n/a	n/a	1	UoHDataOffsetStream
377.769289	1.701006	nback_1	1665.983301	Steps:1 KeyPress:False Matched:False	1	n/a	1	False	False	n/a	n/a	n/a	n-backMarkers
378.611168	0.004000	dropped_samples	1666.825181	Dropped 1 samples	n/a	n/a	n/a	n/a	n/a	n/a	n/a	1	UoHDataOffsetStream
379.469367	1.701006	nback_1	1667.683380	Steps:1 KeyPress:True Matched:False	0	n/a	1	True	False	n/a	n/a	n/a	n-backMarkers
381.170311	1.701006	nback_1	1669.384323	Steps:1 KeyPress:False Matched:True	0	n/a	1	False	True	n/a	n/a	n/a	n-backMarkers
382.546718	0.004000	dropped_samples	1670.760730	Dropped 1 samples	n/a	n/a	n/a	n/a	n/a	n/a	n/a	1	UoHDataOffsetStream
382.668712	0.004000	dropped_samples	1670.882725	Dropped 1 samples	n/a	n/a	n/a	n/a	n/a	n/a	n/a	1	UoHDataOffsetStream
382.872126	1.701006	nback_1	1671.086139	Steps:1 KeyPress:False Matched:False	1	n/a	1	False	False	n/a	n/a	n/a	n-backMarkers
383.098414	0.008000	dropped_samples	1671.312426	Dropped 2 samples	n/a	n/a	n/a	n/a	n/a	n/a	n/a	2	UoHDataOffsetStream
384.573168	1.701006	nback_1	1672.787180	Steps:1 KeyPress:True Matched:False	0	n/a	1	True	False	n/a	n/a	n/a	n-backMarkers
386.274257	1.701006	nback_1	1674.488270	Steps:1 KeyPress:False Matched:False	1	n/a	1	False	False	n/a	n/a	n/a	n-backMarkers
387.635159	0.004000	dropped_samples	1675.849171	Dropped 1 samples	n/a	n/a	n/a	n/a	n/a	n/a	n/a	1	UoHDataOffsetStream
387.974448	1.701006	nback_1	1676.188461	Steps:1 KeyPress:True Matched:False	0	n/a	1	True	False	n/a	n/a	n/a	n-backMarkers
388.620898	0.008000	dropped_samples	1676.834910	Dropped 2 samples	n/a	n/a	n/a	n/a	n/a	n/a	n/a	2	UoHDataOffsetStream
389.676361	1.701006	nback_1	1677.890374	Steps:1 KeyPress:False Matched:True	0	n/a	1	False	True	n/a	n/a	n/a	n-backMarkers
391.377084	1.701006	nback_1	1679.591097	Steps:1 KeyPress:False Matched:True	0	n/a	1	False	True	n/a	n/a	n/a	n-backMarkers
393.078057	1.701006	nback_1	1681.292069	Steps:1 KeyPress:False Matched:False	1	n/a	1	False	False	n/a	n/a	n/a	n-backMarkers
394.621847	0.004000	dropped_samples	1682.835859	Dropped 1 samples	n/a	n/a	n/a	n/a	n/a	n/a	n/a	1	UoHDataOffsetStream
394.778607	1.701006	nback_1	1682.992619	Steps:1 KeyPress:True Matched:False	0	n/a	1	True	False	n/a	n/a	n/a	n-backMarkers
395.002749	0.004000	dropped_samples	1683.216761	Dropped 1 samples	n/a	n/a	n/a	n/a	n/a	n/a	n/a	1	UoHDataOffsetStream
396.479800	1.701006	nback_1	1684.693813	Steps:1 KeyPress:False Matched:True	0	n/a	1	False	True	n/a	n/a	n/a	n-backMarkers
396.946108	0.004000	dropped_samples	1685.160121	Dropped 1 samples	n/a	n/a	n/a	n/a	n/a	n/a	n/a	1	UoHDataOffsetStream
398.180439	1.701006	nback_1	1686.394451	Steps:1 KeyPress:False Matched:True	0	n/a	1	False	True	n/a	n/a	n/a	n-backMarkers
398.650271	0.004000	dropped_samples	1686.864284	Dropped 1 samples	n/a	n/a	n/a	n/a	n/a	n/a	n/a	1	UoHDataOffsetStream
399.881101	1.701006	nback_1	1688.095113	Steps:1 KeyPress:False Matched:False	1	n/a	1	False	False	n/a	n/a	n/a	n-backMarkers
401.581253	1.701006	nback_1	1689.795265	Steps:1 KeyPress:False Matched:True	0	n/a	1	False	True	n/a	n/a	n/a	n-backMarkers
402.444161	0.004000	dropped_samples	1690.658173	Dropped 1 samples	n/a	n/a	n/a	n/a	n/a	n/a	n/a	1	UoHDataOffsetStream
403.283953	1.701006	nback_1	1691.497965	Steps:1 KeyPress:True Matched:False	0	n/a	1	True	False	n/a	n/a	n/a	n-backMarkers
404.485141	0.008000	dropped_samples	1692.699153	Dropped 2 samples	n/a	n/a	n/a	n/a	n/a	n/a	n/a	2	UoHDataOffsetStream
404.985444	1.701006	nback_1	1693.199457	Steps:1 KeyPress:False Matched:True	0	n/a	1	False	True	n/a	n/a	n/a	n-backMarkers
405.877249	0.012000	dropped_samples	1694.091261	Dropped 3 samples	n/a	n/a	n/a	n/a	n/a	n/a	n/a	3	UoHDataOffsetStream
406.686362	1.701006	nback_1	1694.900375	Steps:1 KeyPress:False Matched:True	0	n/a	1	False	True	n/a	n/a	n/a	n-backMarkers
408.201058	0.008000	dropped_samples	1696.415071	Dropped 2 samples	n/a	n/a	n/a	n/a	n/a	n/a	n/a	2	UoHDataOffsetStream
408.386968	1.701006	nback_1	1696.600980	Steps:1 KeyPress:False Matched:False	1	n/a	1	False	False	n/a	n/a	n/a	n-backMarkers
409.763515	0.004000	dropped_samples	1697.977528	Dropped 1 samples	n/a	n/a	n/a	n/a	n/a	n/a	n/a	1	UoHDataOffsetStream
409.861144	0.004000	dropped_samples	1698.075156	Dropped 1 samples	n/a	n/a	n/a	n/a	n/a	n/a	n/a	1	UoHDataOffsetStream
410.088103	1.701006	nback_1	1698.302115	Steps:1 KeyPress:False Matched:False	1	n/a	1	False	False	n/a	n/a	n/a	n-backMarkers
410.149266	0.004000	dropped_samples	1698.363279	Dropped 1 samples	n/a	n/a	n/a	n/a	n/a	n/a	n/a	1	UoHDataOffsetStream
411.788705	1.701006	nback_1	1700.002717	Steps:1 KeyPress:False Matched:False	1	n/a	1	False	False	n/a	n/a	n/a	n-backMarkers
413.489751	1.701006	nback_1	1701.703763	Steps:1 KeyPress:True Matched:False	0	n/a	1	True	False	n/a	n/a	n/a	n-backMarkers
414.851649	0.004000	dropped_samples	1703.065661	Dropped 1 samples	n/a	n/a	n/a	n/a	n/a	n/a	n/a	1	UoHDataOffsetStream
415.190738	1.701006	nback_1	1703.404751	Steps:1 KeyPress:False Matched:True	0	n/a	1	False	True	n/a	n/a	n/a	n-backMarkers
415.837757	0.004000	dropped_samples	1704.051769	Dropped 1 samples	n/a	n/a	n/a	n/a	n/a	n/a	n/a	1	UoHDataOffsetStream
416.746015	0.004000	dropped_samples	1704.960027	Dropped 1 samples	n/a	n/a	n/a	n/a	n/a	n/a	n/a	1	UoHDataOffsetStream
416.892095	1.701006	nback_1	1705.106107	Steps:1 KeyPress:False Matched:True	0	n/a	1	False	True	n/a	n/a	n/a	n-backMarkers
416.892926	0.004000	dropped_samples	1705.106938	Dropped 1 samples	n/a	n/a	n/a	n/a	n/a	n/a	n/a	1	UoHDataOffsetStream
417.180528	0.004000	dropped_samples	1705.394540	Dropped 1 samples	n/a	n/a	n/a	n/a	n/a	n/a	n/a	1	UoHDataOffsetStream
417.878785	0.004000	dropped_samples	1706.092797	Dropped 1 samples	n/a	n/a	n/a	n/a	n/a	n/a	n/a	1	UoHDataOffsetStream
418.593181	1.701006	nback_1	1706.807193	Steps:1 KeyPress:False Matched:False	1	n/a	1	False	False	n/a	n/a	n/a	n-backMarkers
420.293594	1.701006	nback_1	1708.507606	Steps:1 KeyPress:False Matched:False	1	n/a	1	False	False	n/a	n/a	n/a	n-backMarkers
420.901344	0.004000	dropped_samples	1709.115356	Dropped 1 samples	n/a	n/a	n/a	n/a	n/a	n/a	n/a	1	UoHDataOffsetStream
421.994309	1.701006	nback_1	1710.208321	Steps:1 KeyPress:True Matched:False	0	n/a	1	True	False	n/a	n/a	n/a	n-backMarkers
422.820193	0.004000	dropped_samples	1711.034205	Dropped 1 samples	n/a	n/a	n/a	n/a	n/a	n/a	n/a	1	UoHDataOffsetStream
423.696461	1.701006	nback_1	1711.910474	Steps:1 KeyPress:False Matched:True	0	n/a	1	False	True	n/a	n/a	n/a	n-backMarkers
424.953980	0.004000	dropped_samples	1713.167992	Dropped 1 samples	n/a	n/a	n/a	n/a	n/a	n/a	n/a	1	UoHDataOffsetStream
425.398230	1.701006	nback_1	1713.612243	Steps:1 KeyPress:False Matched:False	1	n/a	1	False	False	n/a	n/a	n/a	n-backMarkers
427.098520	1.701006	nback_1	1715.312533	Steps:1 KeyPress:True Matched:False	0	n/a	1	True	False	n/a	n/a	n/a	n-backMarkers
427.595632	0.004000	dropped_samples	1715.809644	Dropped 1 samples	n/a	n/a	n/a	n/a	n/a	n/a	n/a	1	UoHDataOffsetStream
427.834896	0.008000	dropped_samples	1716.048908	Dropped 2 samples	n/a	n/a	n/a	n/a	n/a	n/a	n/a	2	UoHDataOffsetStream
428.005813	0.004000	dropped_samples	1716.219825	Dropped 1 samples	n/a	n/a	n/a	n/a	n/a	n/a	n/a	1	UoHDataOffsetStream
428.799489	1.701006	nback_1	1717.013501	Steps:1 KeyPress:False Matched:False	1	n/a	1	False	False	n/a	n/a	n/a	n-backMarkers
429.563411	0.008000	dropped_samples	1717.777423	Dropped 2 samples	n/a	n/a	n/a	n/a	n/a	n/a	n/a	2	UoHDataOffsetStream
430.212804	0.004000	dropped_samples	1718.426816	Dropped 1 samples	n/a	n/a	n/a	n/a	n/a	n/a	n/a	1	UoHDataOffsetStream
430.500426	1.701006	nback_1	1718.714439	Steps:1 KeyPress:True Matched:False	0	n/a	1	True	False	n/a	n/a	n/a	n-backMarkers
431.077264	0.004000	dropped_samples	1719.291276	Dropped 1 samples	n/a	n/a	n/a	n/a	n/a	n/a	n/a	1	UoHDataOffsetStream
432.201526	1.701006	nback_1	1720.415538	Steps:1 KeyPress:False Matched:True	0	n/a	1	False	True	n/a	n/a	n/a	n-backMarkers
435.998964	0.004000	dropped_samples	1724.212976	Dropped 1 samples	n/a	n/a	n/a	n/a	n/a	n/a	n/a	1	UoHDataOffsetStream
437.678644	0.004000	dropped_samples	1725.892656	Dropped 1 samples	n/a	n/a	n/a	n/a	n/a	n/a	n/a	1	UoHDataOffsetStream
440.896436	1.701006	nback_2	1729.110449	Steps:2 KeyPress:False Matched:False	1	n/a	2	False	False	n/a	n/a	n/a	n-backMarkers
441.326149	0.008000	dropped_samples	1729.540161	Dropped 2 samples	n/a	n/a	n/a	n/a	n/a	n/a	n/a	2	UoHDataOffsetStream
442.165928	0.012000	dropped_samples	1730.379940	Dropped 3 samples	n/a	n/a	n/a	n/a	n/a	n/a	n/a	3	UoHDataOffsetStream
442.597295	1.701006	nback_2	1730.811308	Steps:2 KeyPress:False Matched:False	1	n/a	2	False	False	n/a	n/a	n/a	n-backMarkers
443.098860	0.004000	dropped_samples	1731.312872	Dropped 1 samples	n/a	n/a	n/a	n/a	n/a	n/a	n/a	1	UoHDataOffsetStream
443.650368	0.004000	dropped_samples	1731.864381	Dropped 1 samples	n/a	n/a	n/a	n/a	n/a	n/a	n/a	1	UoHDataOffsetStream
444.207286	0.004000	dropped_samples	1732.421298	Dropped 1 samples	n/a	n/a	n/a	n/a	n/a	n/a	n/a	1	UoHDataOffsetStream
444.299098	1.701006	nback_2	1732.513111	Steps:2 KeyPress:False Matched:False	1	n/a	2	False	False	n/a	n/a	n/a	n-backMarkers
445.120258	0.012000	dropped_samples	1733.334270	Dropped 3 samples	n/a	n/a	n/a	n/a	n/a	n/a	n/a	3	UoHDataOffsetStream
446.000964	1.701006	nback_2	1734.214976	Steps:2 KeyPress:True Matched:False	0	n/a	2	True	False	n/a	n/a	n/a	n-backMarkers
447.702238	1.701006	nback_2	1735.916250	Steps:2 KeyPress:False Matched:True	0	n/a	2	False	True	n/a	n/a	n/a	n-backMarkers
447.805643	0.004000	dropped_samples	1736.019655	Dropped 1 samples	n/a	n/a	n/a	n/a	n/a	n/a	n/a	1	UoHDataOffsetStream
448.191373	0.004000	dropped_samples	1736.405386	Dropped 1 samples	n/a	n/a	n/a	n/a	n/a	n/a	n/a	1	UoHDataOffsetStream
449.402304	1.701006	nback_2	1737.616316	Steps:2 KeyPress:False Matched:False	1	n/a	2	False	False	n/a	n/a	n/a	n-backMarkers
450.349581	0.004000	dropped_samples	1738.563593	Dropped 1 samples	n/a	n/a	n/a	n/a	n/a	n/a	n/a	1	UoHDataOffsetStream
451.103629	1.701006	nback_2	1739.317642	Steps:2 KeyPress:False Matched:False	1	n/a	2	False	False	n/a	n/a	n/a	n-backMarkers
451.882888	0.004000	dropped_samples	1740.096900	Dropped 1 samples	n/a	n/a	n/a	n/a	n/a	n/a	n/a	1	UoHDataOffsetStream
452.245889	0.004000	dropped_samples	1740.459901	Dropped 1 samples	n/a	n/a	n/a	n/a	n/a	n/a	n/a	1	UoHDataOffsetStream
452.507770	0.012000	dropped_samples	1740.721782	Dropped 3 samples	n/a	n/a	n/a	n/a	n/a	n/a	n/a	3	UoHDataOffsetStream
452.804008	1.701006	nback_2	1741.018021	Steps:2 KeyPress:True Matched:False	0	n/a	2	True	False	n/a	n/a	n/a	n-backMarkers
453.254875	0.004000	dropped_samples	1741.468887	Dropped 1 samples	n/a	n/a	n/a	n/a	n/a	n/a	n/a	1	UoHDataOffsetStream
453.298827	0.004000	dropped_samples	1741.512839	Dropped 1 samples	n/a	n/a	n/a	n/a	n/a	n/a	n/a	1	UoHDataOffsetStream
454.505082	1.701006	nback_2	1742.719094	Steps:2 KeyPress:False Matched:False	1	n/a	2	False	False	n/a	n/a	n/a	n-backMarkers
456.206293	1.701006	nback_2	1744.420306	Steps:2 KeyPress:False Matched:False	1	n/a	2	False	False	n/a	n/a	n/a	n-backMarkers
456.946856	0.012000	dropped_samples	1745.160868	Dropped 3 samples	n/a	n/a	n/a	n/a	n/a	n/a	n/a	3	UoHDataOffsetStream
457.906887	1.701006	nback_2	1746.120900	Steps:2 KeyPress:True Matched:False	0	n/a	2	True	False	n/a	n/a	n/a	n-backMarkers
459.608368	1.701006	nback_2	1747.822380	Steps:2 KeyPress:False Matched:True	0	n/a	2	False	True	n/a	n/a	n/a	n-backMarkers
459.734488	0.008000	dropped_samples	1747.948501	Dropped 2 samples	n/a	n/a	n/a	n/a	n/a	n/a	n/a	2	UoHDataOffsetStream
461.310341	1.701006	nback_2	1749.524353	Steps:2 KeyPress:False Matched:False	1	n/a	2	False	False	n/a	n/a	n/a	n-backMarkers
462.039072	0.008000	dropped_samples	1750.253085	Dropped 2 samples	n/a	n/a	n/a	n/a	n/a	n/a	n/a	2	UoHDataOffsetStream
462.302752	0.004000	dropped_samples	1750.516764	Dropped 1 samples	n/a	n/a	n/a	n/a	n/a	n/a	n/a	1	UoHDataOffsetStream
463.012267	1.701006	nback_2	1751.226280	Steps:2 KeyPress:False Matched:False	1	n/a	2	False	False	n/a	n/a	n/a	n-backMarkers
463.909288	0.012000	dropped_samples	1752.123301	Dropped 3 samples	n/a	n/a	n/a	n/a	n/a	n/a	n/a	3	UoHDataOffsetStream
464.534186	0.008000	dropped_samples	1752.748199	Dropped 2 samples	n/a	n/a	n/a	n/a	n/a	n/a	n/a	2	UoHDataOffsetStream
464.712857	1.701006	nback_2	1752.926869	Steps:2 KeyPress:True Matched:False	0	n/a	2	True	False	n/a	n/a	n/a	n-backMarkers
465.926012	0.004000	dropped_samples	1754.140025	Dropped 1 samples	n/a	n/a	n/a	n/a	n/a	n/a	n/a	1	UoHDataOffsetStream
466.413327	1.701006	nback_2	1754.627340	Steps:2 KeyPress:False Matched:True	0	n/a	2	False	True	n/a	n/a	n/a	n-backMarkers
466.612698	0.004000	dropped_samples	1754.826710	Dropped 1 samples	n/a	n/a	n/a	n/a	n/a	n/a	n/a	1	UoHDataOffsetStream
466.907470	0.004000	dropped_samples	1755.121482	Dropped 1 samples	n/a	n/a	n/a	n/a	n/a	n/a	n/a	1	UoHDataOffsetStream
468.114420	1.701006	nback_2	1756.328433	Steps:2 KeyPress:False Matched:False	1	n/a	2	False	False	n/a	n/a	n/a	n-backMarkers
468.396501	0.004000	dropped_samples	1756.610514	Dropped 1 samples	n/a	n/a	n/a	n/a	n/a	n/a	n/a	1	UoHDataOffsetStream
468.831212	0.004000	dropped_samples	1757.045225	Dropped 1 samples	n/a	n/a	n/a	n/a	n/a	n/a	n/a	1	UoHDataOffsetStream
469.211943	0.016000	dropped_samples	1757.425956	Dropped 4 samples	n/a	n/a	n/a	n/a	n/a	n/a	n/a	4	UoHDataOffsetStream
469.815711	1.701006	nback_2	1758.029723	Steps:2 KeyPress:False Matched:False	1	n/a	2	False	False	n/a	n/a	n/a	n-backMarkers
471.228563	0.004000	dropped_samples	1759.442575	Dropped 1 samples	n/a	n/a	n/a	n/a	n/a	n/a	n/a	1	UoHDataOffsetStream
471.399633	0.004000	dropped_samples	1759.613646	Dropped 1 samples	n/a	n/a	n/a	n/a	n/a	n/a	n/a	1	UoHDataOffsetStream
471.515785	1.701006	nback_2	1759.729797	Steps:2 KeyPress:True Matched:False	0	n/a	2	True	False	n/a	n/a	n/a	n-backMarkers
472.141741	0.004000	dropped_samples	1760.355753	Dropped 1 samples	n/a	n/a	n/a	n/a	n/a	n/a	n/a	1	UoHDataOffsetStream
472.883863	0.008000	dropped_samples	1761.097876	Dropped 2 samples	n/a	n/a	n/a	n/a	n/a	n/a	n/a	2	UoHDataOffsetStream
473.216400	1.701006	nback_2	1761.430412	Steps:2 KeyPress:False Matched:True	0	n/a	2	False	True	n/a	n/a	n/a	n-backMarkers
474.917196	1.701006	nback_2	1763.131208	Steps:2 KeyPress:False Matched:False	1	n/a	2	False	False	n/a	n/a	n/a	n-backMarkers
475.501011	0.008000	dropped_samples	1763.715023	Dropped 2 samples	n/a	n/a	n/a	n/a	n/a	n/a	n/a	2	UoHDataOffsetStream
476.618617	1.701006	nback_2	1764.832629	Steps:2 KeyPress:False Matched:False	1	n/a	2	False	False	n/a	n/a	n/a	n-backMarkers
477.444378	0.004000	dropped_samples	1765.658390	Dropped 1 samples	n/a	n/a	n/a	n/a	n/a	n/a	n/a	1	UoHDataOffsetStream
477.756878	0.012000	dropped_samples	1765.970890	Dropped 3 samples	n/a	n/a	n/a	n/a	n/a	n/a	n/a	3	UoHDataOffsetStream
478.319638	1.701006	nback_2	1766.533651	Steps:2 KeyPress:True Matched:False	0	n/a	2	True	False	n/a	n/a	n/a	n-backMarkers
478.430732	0.004000	dropped_samples	1766.644745	Dropped 1 samples	n/a	n/a	n/a	n/a	n/a	n/a	n/a	1	UoHDataOffsetStream
478.958077	0.004000	dropped_samples	1767.172089	Dropped 1 samples	n/a	n/a	n/a	n/a	n/a	n/a	n/a	1	UoHDataOffsetStream
479.749077	0.004000	dropped_samples	1767.963089	Dropped 1 samples	n/a	n/a	n/a	n/a	n/a	n/a	n/a	1	UoHDataOffsetStream
479.963948	0.008000	dropped_samples	1768.177960	Dropped 2 samples	n/a	n/a	n/a	n/a	n/a	n/a	n/a	2	UoHDataOffsetStream
480.020289	1.701006	nback_2	1768.234301	Steps:2 KeyPress:False Matched:False	1	n/a	2	False	False	n/a	n/a	n/a	n-backMarkers
480.999123	0.004000	dropped_samples	1769.213136	Dropped 1 samples	n/a	n/a	n/a	n/a	n/a	n/a	n/a	1	UoHDataOffsetStream
481.721588	1.701006	nback_2	1769.935601	Steps:2 KeyPress:False Matched:False	1	n/a	2	False	False	n/a	n/a	n/a	n-backMarkers
481.956102	0.008000	dropped_samples	1770.170115	Dropped 2 samples	n/a	n/a	n/a	n/a	n/a	n/a	n/a	2	UoHDataOffsetStream
483.422407	1.701006	nback_2	1771.636419	Steps:2 KeyPress:False Matched:False	1	n/a	2	False	False	n/a	n/a	n/a	n-backMarkers
483.478394	0.004000	dropped_samples	1771.692407	Dropped 1 samples	n/a	n/a	n/a	n/a	n/a	n/a	n/a	1	UoHDataOffsetStream
483.518743	0.004000	dropped_samples	1771.732756	Dropped 1 samples	n/a	n/a	n/a	n/a	n/a	n/a	n/a	1	UoHDataOffsetStream
484.451238	0.004000	dropped_samples	1772.665251	Dropped 1 samples	n/a	n/a	n/a	n/a	n/a	n/a	n/a	1	UoHDataOffsetStream
485.123680	1.701006	nback_2	1773.337692	Steps:2 KeyPress:False Matched:False	1	n/a	2	False	False	n/a	n/a	n/a	n-backMarkers
485.462023	0.004000	dropped_samples	1773.676035	Dropped 1 samples	n/a	n/a	n/a	n/a	n/a	n/a	n/a	1	UoHDataOffsetStream
485.579198	0.008000	dropped_samples	1773.793211	Dropped 2 samples	n/a	n/a	n/a	n/a	n/a	n/a	n/a	2	UoHDataOffsetStream
486.824221	1.701006	nback_2	1775.038233	Steps:2 KeyPress:False Matched:False	1	n/a	2	False	False	n/a	n/a	n/a	n-backMarkers
487.283366	0.004000	dropped_samples	1775.497378	Dropped 1 samples	n/a	n/a	n/a	n/a	n/a	n/a	n/a	1	UoHDataOffsetStream
488.525244	1.701006	nback_2	1776.739256	Steps:2 KeyPress:True Matched:False	0	n/a	2	True	False	n/a	n/a	n/a	n-backMarkers
490.226224	1.701006	nback_2	1778.440236	Steps:2 KeyPress:False Matched:True	0	n/a	2	False	True	n/a	n/a	n/a	n-backMarkers
491.126084	0.004000	dropped_samples	1779.340097	Dropped 1 samples	n/a	n/a	n/a	n/a	n/a	n/a	n/a	1	UoHDataOffsetStream
491.926358	1.701006	nback_2	1780.140371	Steps:2 KeyPress:False Matched:False	1	n/a	2	False	False	n/a	n/a	n/a	n-backMarkers
493.479605	0.008000	dropped_samples	1781.693617	Dropped 2 samples	n/a	n/a	n/a	n/a	n/a	n/a	n/a	2	UoHDataOffsetStream
493.627043	1.701006	nback_2	1781.841055	Steps:2 KeyPress:False Matched:False	1	n/a	2	False	False	n/a	n/a	n/a	n-backMarkers
493.767718	0.008000	dropped_samples	1781.981730	Dropped 2 samples	n/a	n/a	n/a	n/a	n/a	n/a	n/a	2	UoHDataOffsetStream
494.031356	0.004000	dropped_samples	1782.245368	Dropped 1 samples	n/a	n/a	n/a	n/a	n/a	n/a	n/a	1	UoHDataOffsetStream
494.295047	0.004000	dropped_samples	1782.509059	Dropped 1 samples	n/a	n/a	n/a	n/a	n/a	n/a	n/a	1	UoHDataOffsetStream
494.583186	0.004000	dropped_samples	1782.797199	Dropped 1 samples	n/a	n/a	n/a	n/a	n/a	n/a	n/a	1	UoHDataOffsetStream
495.327944	1.701006	nback_2	1783.541957	Steps:2 KeyPress:True Matched:False	0	n/a	2	True	False	n/a	n/a	n/a	n-backMarkers
496.643655	0.008000	dropped_samples	1784.857667	Dropped 2 samples	n/a	n/a	n/a	n/a	n/a	n/a	n/a	2	UoHDataOffsetStream
497.028967	1.701006	nback_2	1785.242980	Steps:2 KeyPress:False Matched:True	0	n/a	2	False	True	n/a	n/a	n/a	n-backMarkers
498.729484	1.701006	nback_2	1786.943497	Steps:2 KeyPress:False Matched:False	1	n/a	2	False	False	n/a	n/a	n/a	n-backMarkers
499.715011	0.004000	dropped_samples	1787.929023	Dropped 1 samples	n/a	n/a	n/a	n/a	n/a	n/a	n/a	1	UoHDataOffsetStream
500.430530	1.701006	nback_2	1788.644542	Steps:2 KeyPress:False Matched:False	1	n/a	2	False	False	n/a	n/a	n/a	n-backMarkers
501.565558	0.004000	dropped_samples	1789.779570	Dropped 1 samples	n/a	n/a	n/a	n/a	n/a	n/a	n/a	1	UoHDataOffsetStream
502.131436	1.701006	nback_2	1790.345448	Steps:2 KeyPress:True Matched:False	0	n/a	2	True	False	n/a	n/a	n/a	n-backMarkers
502.932814	0.004000	dropped_samples	1791.146826	Dropped 1 samples	n/a	n/a	n/a	n/a	n/a	n/a	n/a	1	UoHDataOffsetStream
503.582154	0.004000	dropped_samples	1791.796166	Dropped 1 samples	n/a	n/a	n/a	n/a	n/a	n/a	n/a	1	UoHDataOffsetStream
503.832623	1.701006	nback_2	1792.046635	Steps:2 KeyPress:False Matched:False	1	n/a	2	False	False	n/a	n/a	n/a	n-backMarkers
503.894673	0.004000	dropped_samples	1792.108686	Dropped 1 samples	n/a	n/a	n/a	n/a	n/a	n/a	n/a	1	UoHDataOffsetStream
505.534229	1.701006	nback_2	1793.748241	Steps:2 KeyPress:False Matched:False	1	n/a	2	False	False	n/a	n/a	n/a	n-backMarkers
505.574341	0.004000	dropped_samples	1793.788353	Dropped 1 samples	n/a	n/a	n/a	n/a	n/a	n/a	n/a	1	UoHDataOffsetStream
506.965980	0.004000	dropped_samples	1795.179992	Dropped 1 samples	n/a	n/a	n/a	n/a	n/a	n/a	n/a	1	UoHDataOffsetStream
507.234683	1.701006	nback_2	1795.448696	Steps:2 KeyPress:True Matched:False	0	n/a	2	True	False	n/a	n/a	n/a	n-backMarkers
508.621298	0.004000	dropped_samples	1796.835310	Dropped 1 samples	n/a	n/a	n/a	n/a	n/a	n/a	n/a	1	UoHDataOffsetStream
508.935342	1.701006	nback_2	1797.149354	Steps:2 KeyPress:False Matched:True	0	n/a	2	False	True	n/a	n/a	n/a	n-backMarkers
509.297079	0.004000	dropped_samples	1797.511092	Dropped 1 samples	n/a	n/a	n/a	n/a	n/a	n/a	n/a	1	UoHDataOffsetStream
510.636492	1.701006	nback_2	1798.850505	Steps:2 KeyPress:False Matched:False	1	n/a	2	False	False	n/a	n/a	n/a	n-backMarkers
511.140772	0.004000	dropped_samples	1799.354785	Dropped 1 samples	n/a	n/a	n/a	n/a	n/a	n/a	n/a	1	UoHDataOffsetStream
511.287263	0.004000	dropped_samples	1799.501275	Dropped 1 samples	n/a	n/a	n/a	n/a	n/a	n/a	n/a	1	UoHDataOffsetStream
511.653258	0.004000	dropped_samples	1799.867271	Dropped 1 samples	n/a	n/a	n/a	n/a	n/a	n/a	n/a	1	UoHDataOffsetStream
511.814717	0.004000	dropped_samples	1800.028729	Dropped 1 samples	n/a	n/a	n/a	n/a	n/a	n/a	n/a	1	UoHDataOffsetStream
512.151511	0.004000	dropped_samples	1800.365523	Dropped 1 samples	n/a	n/a	n/a	n/a	n/a	n/a	n/a	1	UoHDataOffsetStream
512.337923	1.701006	nback_2	1800.551935	Steps:2 KeyPress:False Matched:False	1	n/a	2	False	False	n/a	n/a	n/a	n-backMarkers
513.660371	0.004000	dropped_samples	1801.874384	Dropped 1 samples	n/a	n/a	n/a	n/a	n/a	n/a	n/a	1	UoHDataOffsetStream
513.806870	0.004000	dropped_samples	1802.020883	Dropped 1 samples	n/a	n/a	n/a	n/a	n/a	n/a	n/a	1	UoHDataOffsetStream
514.039153	1.701006	nback_2	1802.253165	Steps:2 KeyPress:True Matched:False	0	n/a	2	True	False	n/a	n/a	n/a	n-backMarkers
515.178088	0.004000	dropped_samples	1803.392100	Dropped 1 samples	n/a	n/a	n/a	n/a	n/a	n/a	n/a	1	UoHDataOffsetStream
515.222799	0.012000	dropped_samples	1803.436811	Dropped 3 samples	n/a	n/a	n/a	n/a	n/a	n/a	n/a	3	UoHDataOffsetStream
515.739607	1.701006	nback_2	1803.953620	Steps:2 KeyPress:False Matched:False	1	n/a	2	False	False	n/a	n/a	n/a	n-backMarkers
517.440229	1.701006	nback_2	1805.654242	Steps:2 KeyPress:False Matched:False	1	n/a	2	False	False	n/a	n/a	n/a	n-backMarkers
519.141495	1.701006	nback_2	1807.355507	Steps:2 KeyPress:True Matched:False	0	n/a	2	True	False	n/a	n/a	n/a	n-backMarkers
520.310738	0.008000	dropped_samples	1808.524751	Dropped 2 samples	n/a	n/a	n/a	n/a	n/a	n/a	n/a	2	UoHDataOffsetStream
520.843698	1.701006	nback_2	1809.057710	Steps:2 KeyPress:False Matched:False	1	n/a	2	False	False	n/a	n/a	n/a	n-backMarkers
521.101927	0.008000	dropped_samples	1809.315939	Dropped 2 samples	n/a	n/a	n/a	n/a	n/a	n/a	n/a	2	UoHDataOffsetStream
522.544448	1.701006	nback_2	1810.758460	Steps:2 KeyPress:False Matched:False	1	n/a	2	False	False	n/a	n/a	n/a	n-backMarkers
523.694514	0.004000	dropped_samples	1811.908526	Dropped 1 samples	n/a	n/a	n/a	n/a	n/a	n/a	n/a	1	UoHDataOffsetStream
524.246148	1.701006	nback_2	1812.460161	Steps:2 KeyPress:True Matched:False	0	n/a	2	True	False	n/a	n/a	n/a	n-backMarkers
524.988498	0.008000	dropped_samples	1813.202511	Dropped 2 samples	n/a	n/a	n/a	n/a	n/a	n/a	n/a	2	UoHDataOffsetStream
525.947057	1.701006	nback_2	1814.161069	Steps:2 KeyPress:False Matched:False	1	n/a	2	False	False	n/a	n/a	n/a	n-backMarkers
526.765809	0.004000	dropped_samples	1814.979821	Dropped 1 samples	n/a	n/a	n/a	n/a	n/a	n/a	n/a	1	UoHDataOffsetStream
527.464086	0.012000	dropped_samples	1815.678099	Dropped 3 samples	n/a	n/a	n/a	n/a	n/a	n/a	n/a	3	UoHDataOffsetStream
527.648299	1.701006	nback_2	1815.862311	Steps:2 KeyPress:False Matched:False	1	n/a	2	False	False	n/a	n/a	n/a	n-backMarkers
527.727739	0.004000	dropped_samples	1815.941751	Dropped 1 samples	n/a	n/a	n/a	n/a	n/a	n/a	n/a	1	UoHDataOffsetStream
528.684797	0.012000	dropped_samples	1816.898809	Dropped 3 samples	n/a	n/a	n/a	n/a	n/a	n/a	n/a	3	UoHDataOffsetStream
529.285458	0.004000	dropped_samples	1817.499471	Dropped 1 samples	n/a	n/a	n/a	n/a	n/a	n/a	n/a	1	UoHDataOffsetStream
529.350245	1.701006	nback_2	1817.564258	Steps:2 KeyPress:True Matched:False	0	n/a	2	True	False	n/a	n/a	n/a	n-backMarkers
531.050244	1.701006	nback_2	1819.264256	Steps:2 KeyPress:False Matched:True	0	n/a	2	False	True	n/a	n/a	n/a	n-backMarkers
531.713098	0.004000	dropped_samples	1819.927110	Dropped 1 samples	n/a	n/a	n/a	n/a	n/a	n/a	n/a	1	UoHDataOffsetStream
532.751761	1.701006	nback_2	1820.965774	Steps:2 KeyPress:False Matched:False	1	n/a	2	False	False	n/a	n/a	n/a	n-backMarkers
533.128152	0.008000	dropped_samples	1821.342165	Dropped 2 samples	n/a	n/a	n/a	n/a	n/a	n/a	n/a	2	UoHDataOffsetStream
533.484709	0.012000	dropped_samples	1821.698721	Dropped 3 samples	n/a	n/a	n/a	n/a	n/a	n/a	n/a	3	UoHDataOffsetStream
533.797224	0.004000	dropped_samples	1822.011236	Dropped 1 samples	n/a	n/a	n/a	n/a	n/a	n/a	n/a	1	UoHDataOffsetStream
534.452277	1.701006	nback_2	1822.666289	Steps:2 KeyPress:False Matched:False	1	n/a	2	False	False	n/a	n/a	n/a	n-backMarkers
535.764919	0.004000	dropped_samples	1823.978931	Dropped 1 samples	n/a	n/a	n/a	n/a	n/a	n/a	n/a	1	UoHDataOffsetStream
536.153947	1.701006	nback_2	1824.367960	Steps:2 KeyPress:False Matched:False	1	n/a	2	False	False	n/a	n/a	n/a	n-backMarkers
537.302979	0.004000	dropped_samples	1825.516991	Dropped 1 samples	n/a	n/a	n/a	n/a	n/a	n/a	n/a	1	UoHDataOffsetStream
537.855029	1.701006	nback_2	1826.069042	Steps:2 KeyPress:True Matched:False	0	n/a	2	True	False	n/a	n/a	n/a	n-backMarkers
539.148662	0.004000	dropped_samples	1827.362674	Dropped 1 samples	n/a	n/a	n/a	n/a	n/a	n/a	n/a	1	UoHDataOffsetStream
539.555777	1.701006	nback_2	1827.769790	Steps:2 KeyPress:False Matched:False	1	n/a	2	False	False	n/a	n/a	n/a	n-backMarkers
540.086209	0.008000	dropped_samples	1828.300221	Dropped 2 samples	n/a	n/a	n/a	n/a	n/a	n/a	n/a	2	UoHDataOffsetStream
541.257255	1.701006	nback_2	1829.471267	Steps:2 KeyPress:False Matched:False	1	n/a	2	False	False	n/a	n/a	n/a	n-backMarkers
542.127238	0.012000	dropped_samples	1830.341250	Dropped 3 samples	n/a	n/a	n/a	n/a	n/a	n/a	n/a	3	UoHDataOffsetStream
542.820612	0.004000	dropped_samples	1831.034625	Dropped 1 samples	n/a	n/a	n/a	n/a	n/a	n/a	n/a	1	UoHDataOffsetStream
542.958326	1.701006	nback_2	1831.172338	Steps:2 KeyPress:True Matched:False	0	n/a	2	True	False	n/a	n/a	n/a	n-backMarkers
543.183204	0.004000	dropped_samples	1831.397217	Dropped 1 samples	n/a	n/a	n/a	n/a	n/a	n/a	n/a	1	UoHDataOffsetStream
543.470001	0.004000	dropped_samples	1831.684013	Dropped 1 samples	n/a	n/a	n/a	n/a	n/a	n/a	n/a	1	UoHDataOffsetStream
543.831314	0.004000	dropped_samples	1832.045327	Dropped 1 samples	n/a	n/a	n/a	n/a	n/a	n/a	n/a	1	UoHDataOffsetStream
544.659497	1.701006	nback_2	1832.873509	Steps:2 KeyPress:False Matched:True	0	n/a	2	False	True	n/a	n/a	n/a	n-backMarkers
545.628199	0.004000	dropped_samples	1833.842212	Dropped 1 samples	n/a	n/a	n/a	n/a	n/a	n/a	n/a	1	UoHDataOffsetStream
546.360171	1.701006	nback_2	1834.574184	Steps:2 KeyPress:False Matched:False	1	n/a	2	False	False	n/a	n/a	n/a	n-backMarkers
547.981679	0.004000	dropped_samples	1836.195692	Dropped 1 samples	n/a	n/a	n/a	n/a	n/a	n/a	n/a	1	UoHDataOffsetStream
548.061408	1.701006	nback_2	1836.275421	Steps:2 KeyPress:False Matched:False	1	n/a	2	False	False	n/a	n/a	n/a	n-backMarkers
548.391886	0.004000	dropped_samples	1836.605899	Dropped 1 samples	n/a	n/a	n/a	n/a	n/a	n/a	n/a	1	UoHDataOffsetStream
549.763307	1.701006	nback_2	1837.977319	Steps:2 KeyPress:True Matched:False	0	n/a	2	True	False	n/a	n/a	n/a	n-backMarkers
550.740565	0.012000	dropped_samples	1838.954577	Dropped 3 samples	n/a	n/a	n/a	n/a	n/a	n/a	n/a	3	UoHDataOffsetStream
551.463475	1.701006	nback_2	1839.677487	Steps:2 KeyPress:False Matched:True	0	n/a	2	False	True	n/a	n/a	n/a	n-backMarkers
552.830339	0.004000	dropped_samples	1841.044352	Dropped 1 samples	n/a	n/a	n/a	n/a	n/a	n/a	n/a	1	UoHDataOffsetStream
553.164219	1.701006	nback_2	1841.378231	Steps:2 KeyPress:False Matched:False	1	n/a	2	False	False	n/a	n/a	n/a	n-backMarkers
553.958354	0.004000	dropped_samples	1842.172366	Dropped 1 samples	n/a	n/a	n/a	n/a	n/a	n/a	n/a	1	UoHDataOffsetStream
554.865143	1.701006	nback_2	1843.079155	Steps:2 KeyPress:False Matched:False	1	n/a	2	False	False	n/a	n/a	n/a	n-backMarkers
556.565400	1.701006	nback_2	1844.779412	Steps:2 KeyPress:True Matched:False	0	n/a	2	True	False	n/a	n/a	n/a	n-backMarkers
558.015940	0.008000	dropped_samples	1846.229953	Dropped 2 samples	n/a	n/a	n/a	n/a	n/a	n/a	n/a	2	UoHDataOffsetStream
558.266355	1.701006	nback_2	1846.480367	Steps:2 KeyPress:False Matched:True	0	n/a	2	False	True	n/a	n/a	n/a	n-backMarkers
559.788506	0.004000	dropped_samples	1848.002518	Dropped 1 samples	n/a	n/a	n/a	n/a	n/a	n/a	n/a	1	UoHDataOffsetStream
559.967817	1.701006	nback_2	1848.181829	Steps:2 KeyPress:False Matched:False	1	n/a	2	False	False	n/a	n/a	n/a	n-backMarkers
561.668208	1.701006	nback_2	1849.882220	Steps:2 KeyPress:False Matched:True	0	n/a	2	False	True	n/a	n/a	n/a	n-backMarkers
562.020019	0.004000	dropped_samples	1850.234032	Dropped 1 samples	n/a	n/a	n/a	n/a	n/a	n/a	n/a	1	UoHDataOffsetStream
563.030654	0.004000	dropped_samples	1851.244667	Dropped 1 samples	n/a	n/a	n/a	n/a	n/a	n/a	n/a	1	UoHDataOffsetStream
563.294307	0.004000	dropped_samples	1851.508319	Dropped 1 samples	n/a	n/a	n/a	n/a	n/a	n/a	n/a	1	UoHDataOffsetStream
563.369027	1.701006	nback_2	1851.583039	Steps:2 KeyPress:False Matched:False	1	n/a	2	False	False	n/a	n/a	n/a	n-backMarkers
564.807986	0.008000	dropped_samples	1853.021998	Dropped 2 samples	n/a	n/a	n/a	n/a	n/a	n/a	n/a	2	UoHDataOffsetStream
565.047158	0.004000	dropped_samples	1853.261171	Dropped 1 samples	n/a	n/a	n/a	n/a	n/a	n/a	n/a	1	UoHDataOffsetStream
565.070099	1.701006	nback_2	1853.284111	Steps:2 KeyPress:False Matched:False	1	n/a	2	False	False	n/a	n/a	n/a	n-backMarkers
565.647793	0.008000	dropped_samples	1853.861806	Dropped 2 samples	n/a	n/a	n/a	n/a	n/a	n/a	n/a	2	UoHDataOffsetStream
566.770215	1.701006	nback_2	1854.984227	Steps:2 KeyPress:False Matched:False	1	n/a	2	False	False	n/a	n/a	n/a	n-backMarkers
566.868518	0.012000	dropped_samples	1855.082530	Dropped 3 samples	n/a	n/a	n/a	n/a	n/a	n/a	n/a	3	UoHDataOffsetStream
567.042868	0.004000	dropped_samples	1855.256880	Dropped 1 samples	n/a	n/a	n/a	n/a	n/a	n/a	n/a	1	UoHDataOffsetStream
568.118670	0.004000	dropped_samples	1856.332682	Dropped 1 samples	n/a	n/a	n/a	n/a	n/a	n/a	n/a	1	UoHDataOffsetStream
568.455421	0.004000	dropped_samples	1856.669434	Dropped 1 samples	n/a	n/a	n/a	n/a	n/a	n/a	n/a	1	UoHDataOffsetStream
568.471218	1.701006	nback_2	1856.685231	Steps:2 KeyPress:False Matched:False	1	n/a	2	False	False	n/a	n/a	n/a	n-backMarkers
568.982973	0.012000	dropped_samples	1857.196986	Dropped 3 samples	n/a	n/a	n/a	n/a	n/a	n/a	n/a	3	UoHDataOffsetStream
569.124364	0.004000	dropped_samples	1857.338376	Dropped 1 samples	n/a	n/a	n/a	n/a	n/a	n/a	n/a	1	UoHDataOffsetStream
569.412461	0.004000	dropped_samples	1857.626474	Dropped 1 samples	n/a	n/a	n/a	n/a	n/a	n/a	n/a	1	UoHDataOffsetStream
570.171518	1.701006	nback_2	1858.385531	Steps:2 KeyPress:False Matched:False	1	n/a	2	False	False	n/a	n/a	n/a	n-backMarkers
571.790386	0.012000	dropped_samples	1860.004398	Dropped 3 samples	n/a	n/a	n/a	n/a	n/a	n/a	n/a	3	UoHDataOffsetStream
571.872906	1.701006	nback_2	1860.086918	Steps:2 KeyPress:False Matched:False	1	n/a	2	False	False	n/a	n/a	n/a	n-backMarkers
573.574192	1.701006	nback_2	1861.788204	Steps:2 KeyPress:True Matched:False	0	n/a	2	True	False	n/a	n/a	n/a	n-backMarkers
574.143919	0.004000	dropped_samples	1862.357931	Dropped 1 samples	n/a	n/a	n/a	n/a	n/a	n/a	n/a	1	UoHDataOffsetStream
574.837354	0.008000	dropped_samples	1863.051367	Dropped 2 samples	n/a	n/a	n/a	n/a	n/a	n/a	n/a	2	UoHDataOffsetStream
575.149770	0.004000	dropped_samples	1863.363783	Dropped 1 samples	n/a	n/a	n/a	n/a	n/a	n/a	n/a	1	UoHDataOffsetStream
575.275238	1.701006	nback_2	1863.489250	Steps:2 KeyPress:False Matched:True	0	n/a	2	False	True	n/a	n/a	n/a	n-backMarkers
576.976120	1.701006	nback_2	1865.190133	Steps:2 KeyPress:False Matched:False	1	n/a	2	False	False	n/a	n/a	n/a	n-backMarkers
578.677098	1.701006	nback_2	1866.891111	Steps:2 KeyPress:False Matched:False	1	n/a	2	False	False	n/a	n/a	n/a	n-backMarkers
578.992557	0.004000	dropped_samples	1867.206570	Dropped 1 samples	n/a	n/a	n/a	n/a	n/a	n/a	n/a	1	UoHDataOffsetStream
579.207447	0.004000	dropped_samples	1867.421460	Dropped 1 samples	n/a	n/a	n/a	n/a	n/a	n/a	n/a	1	UoHDataOffsetStream
580.378474	1.701006	nback_2	1868.592486	Steps:2 KeyPress:True Matched:True	1	n/a	2	True	True	n/a	n/a	n/a	n-backMarkers
582.080185	1.701006	nback_2	1870.294198	Steps:2 KeyPress:False Matched:False	1	n/a	2	False	False	n/a	n/a	n/a	n-backMarkers
583.548329	0.004000	dropped_samples	1871.762341	Dropped 1 samples	n/a	n/a	n/a	n/a	n/a	n/a	n/a	1	UoHDataOffsetStream
583.781174	1.701006	nback_2	1871.995186	Steps:2 KeyPress:False Matched:False	1	n/a	2	False	False	n/a	n/a	n/a	n-backMarkers
584.773826	0.008000	dropped_samples	1872.987838	Dropped 2 samples	n/a	n/a	n/a	n/a	n/a	n/a	n/a	2	UoHDataOffsetStream
584.920339	0.004000	dropped_samples	1873.134351	Dropped 1 samples	n/a	n/a	n/a	n/a	n/a	n/a	n/a	1	UoHDataOffsetStream
585.110820	0.004000	dropped_samples	1873.324833	Dropped 1 samples	n/a	n/a	n/a	n/a	n/a	n/a	n/a	1	UoHDataOffsetStream
585.482000	1.701006	nback_2	1873.696012	Steps:2 KeyPress:True Matched:False	0	n/a	2	True	False	n/a	n/a	n/a	n-backMarkers
586.863648	0.008000	dropped_samples	1875.077660	Dropped 2 samples	n/a	n/a	n/a	n/a	n/a	n/a	n/a	2	UoHDataOffsetStream
586.956419	0.004000	dropped_samples	1875.170432	Dropped 1 samples	n/a	n/a	n/a	n/a	n/a	n/a	n/a	1	UoHDataOffsetStream
587.182440	1.701006	nback_2	1875.396453	Steps:2 KeyPress:False Matched:True	0	n/a	2	False	True	n/a	n/a	n/a	n-backMarkers
587.293319	0.004000	dropped_samples	1875.507332	Dropped 1 samples	n/a	n/a	n/a	n/a	n/a	n/a	n/a	1	UoHDataOffsetStream
588.421317	0.004000	dropped_samples	1876.635329	Dropped 1 samples	n/a	n/a	n/a	n/a	n/a	n/a	n/a	1	UoHDataOffsetStream
588.884202	1.701006	nback_2	1877.098214	Steps:2 KeyPress:False Matched:False	1	n/a	2	False	False	n/a	n/a	n/a	n-backMarkers
589.046335	0.004000	dropped_samples	1877.260348	Dropped 1 samples	n/a	n/a	n/a	n/a	n/a	n/a	n/a	1	UoHDataOffsetStream
590.586116	1.701006	nback_2	1878.800128	Steps:2 KeyPress:False Matched:True	0	n/a	2	False	True	n/a	n/a	n/a	n-backMarkers
592.286736	1.701006	nback_2	1880.500749	Steps:2 KeyPress:False Matched:False	1	n/a	2	False	False	n/a	n/a	n/a	n-backMarkers
592.335910	0.004000	dropped_samples	1880.549923	Dropped 1 samples	n/a	n/a	n/a	n/a	n/a	n/a	n/a	1	UoHDataOffsetStream
593.196724	0.004000	dropped_samples	1881.410736	Dropped 1 samples	n/a	n/a	n/a	n/a	n/a	n/a	n/a	1	UoHDataOffsetStream
593.987364	1.701006	nback_2	1882.201377	Steps:2 KeyPress:False Matched:False	1	n/a	2	False	False	n/a	n/a	n/a	n-backMarkers
594.324666	0.004000	dropped_samples	1882.538679	Dropped 1 samples	n/a	n/a	n/a	n/a	n/a	n/a	n/a	1	UoHDataOffsetStream
595.688064	1.701006	nback_2	1883.902076	Steps:2 KeyPress:False Matched:False	1	n/a	2	False	False	n/a	n/a	n/a	n-backMarkers
597.389025	1.701006	nback_2	1885.603037	Steps:2 KeyPress:True Matched:False	0	n/a	2	True	False	n/a	n/a	n/a	n-backMarkers
599.090209	1.701006	nback_2	1887.304222	Steps:2 KeyPress:False Matched:True	0	n/a	2	False	True	n/a	n/a	n/a	n-backMarkers
600.686962	0.004000	dropped_samples	1888.900975	Dropped 1 samples	n/a	n/a	n/a	n/a	n/a	n/a	n/a	1	UoHDataOffsetStream
600.790408	1.701006	nback_2	1889.004421	Steps:2 KeyPress:False Matched:False	1	n/a	2	False	False	n/a	n/a	n/a	n-backMarkers
601.362164	0.004000	dropped_samples	1889.576176	Dropped 1 samples	n/a	n/a	n/a	n/a	n/a	n/a	n/a	1	UoHDataOffsetStream
602.491788	1.701006	nback_2	1890.705801	Steps:2 KeyPress:False Matched:False	1	n/a	2	False	False	n/a	n/a	n/a	n-backMarkers
602.589667	0.004000	dropped_samples	1890.803679	Dropped 1 samples	n/a	n/a	n/a	n/a	n/a	n/a	n/a	1	UoHDataOffsetStream
602.630388	0.012000	dropped_samples	1890.844401	Dropped 3 samples	n/a	n/a	n/a	n/a	n/a	n/a	n/a	3	UoHDataOffsetStream
603.372722	0.004000	dropped_samples	1891.586734	Dropped 1 samples	n/a	n/a	n/a	n/a	n/a	n/a	n/a	1	UoHDataOffsetStream
604.119554	0.040000	dropped_samples	1892.333566	Dropped 10 samples	n/a	n/a	n/a	n/a	n/a	n/a	n/a	10	UoHDataOffsetStream
604.191845	1.701006	nback_2	1892.405857	Steps:2 KeyPress:False Matched:False	1	n/a	2	False	False	n/a	n/a	n/a	n-backMarkers
605.345147	0.004000	dropped_samples	1893.559159	Dropped 1 samples	n/a	n/a	n/a	n/a	n/a	n/a	n/a	1	UoHDataOffsetStream
605.893177	1.701006	nback_2	1894.107189	Steps:2 KeyPress:True Matched:False	0	n/a	2	True	False	n/a	n/a	n/a	n-backMarkers
605.897102	0.012000	dropped_samples	1894.111114	Dropped 3 samples	n/a	n/a	n/a	n/a	n/a	n/a	n/a	3	UoHDataOffsetStream
607.454587	0.004000	dropped_samples	1895.668600	Dropped 1 samples	n/a	n/a	n/a	n/a	n/a	n/a	n/a	1	UoHDataOffsetStream
607.593535	1.701006	nback_2	1895.807547	Steps:2 KeyPress:False Matched:True	0	n/a	2	False	True	n/a	n/a	n/a	n-backMarkers
609.294684	1.701006	nback_2	1897.508697	Steps:2 KeyPress:False Matched:False	1	n/a	2	False	False	n/a	n/a	n/a	n-backMarkers
609.349071	0.004000	dropped_samples	1897.563084	Dropped 1 samples	n/a	n/a	n/a	n/a	n/a	n/a	n/a	1	UoHDataOffsetStream
611.414539	0.004000	dropped_samples	1899.628552	Dropped 1 samples	n/a	n/a	n/a	n/a	n/a	n/a	n/a	1	UoHDataOffsetStream
613.143148	0.008000	dropped_samples	1901.357161	Dropped 2 samples	n/a	n/a	n/a	n/a	n/a	n/a	n/a	2	UoHDataOffsetStream
614.436969	0.004000	dropped_samples	1902.650981	Dropped 1 samples	n/a	n/a	n/a	n/a	n/a	n/a	n/a	1	UoHDataOffsetStream
615.975078	0.004000	dropped_samples	1904.189090	Dropped 1 samples	n/a	n/a	n/a	n/a	n/a	n/a	n/a	1	UoHDataOffsetStream
616.287595	0.004000	dropped_samples	1904.501608	Dropped 1 samples	n/a	n/a	n/a	n/a	n/a	n/a	n/a	1	UoHDataOffsetStream
616.429228	0.004000	dropped_samples	1904.643240	Dropped 1 samples	n/a	n/a	n/a	n/a	n/a	n/a	n/a	1	UoHDataOffsetStream
617.990569	1.701006	nback_3	1906.204582	Steps:3 KeyPress:False Matched:False	1	n/a	3	False	False	n/a	n/a	n/a	n-backMarkers
619.261203	0.004000	dropped_samples	1907.475215	Dropped 1 samples	n/a	n/a	n/a	n/a	n/a	n/a	n/a	1	UoHDataOffsetStream
619.480933	0.004000	dropped_samples	1907.694946	Dropped 1 samples	n/a	n/a	n/a	n/a	n/a	n/a	n/a	1	UoHDataOffsetStream
619.692149	1.701006	nback_3	1907.906161	Steps:3 KeyPress:False Matched:False	1	n/a	3	False	False	n/a	n/a	n/a	n-backMarkers
619.769135	0.004000	dropped_samples	1907.983148	Dropped 1 samples	n/a	n/a	n/a	n/a	n/a	n/a	n/a	1	UoHDataOffsetStream
621.392444	1.701006	nback_3	1909.606456	Steps:3 KeyPress:False Matched:False	1	n/a	3	False	False	n/a	n/a	n/a	n-backMarkers
621.473122	0.004000	dropped_samples	1909.687134	Dropped 1 samples	n/a	n/a	n/a	n/a	n/a	n/a	n/a	1	UoHDataOffsetStream
622.767208	0.008000	dropped_samples	1910.981220	Dropped 2 samples	n/a	n/a	n/a	n/a	n/a	n/a	n/a	2	UoHDataOffsetStream
623.093101	1.701006	nback_3	1911.307114	Steps:3 KeyPress:False Matched:False	1	n/a	3	False	False	n/a	n/a	n/a	n-backMarkers
623.152834	0.004000	dropped_samples	1911.366846	Dropped 1 samples	n/a	n/a	n/a	n/a	n/a	n/a	n/a	1	UoHDataOffsetStream
624.802126	1.701006	nback_3	1913.016138	Steps:3 KeyPress:False Matched:False	1	n/a	3	False	False	n/a	n/a	n/a	n-backMarkers
626.503368	1.701006	nback_3	1914.717380	Steps:3 KeyPress:False Matched:False	1	n/a	3	False	False	n/a	n/a	n/a	n-backMarkers
628.205454	1.701006	nback_3	1916.419466	Steps:3 KeyPress:False Matched:False	1	n/a	3	False	False	n/a	n/a	n/a	n-backMarkers
628.670476	0.008000	dropped_samples	1916.884489	Dropped 2 samples	n/a	n/a	n/a	n/a	n/a	n/a	n/a	2	UoHDataOffsetStream
629.080649	0.004000	dropped_samples	1917.294662	Dropped 1 samples	n/a	n/a	n/a	n/a	n/a	n/a	n/a	1	UoHDataOffsetStream
629.583542	0.004000	dropped_samples	1917.797555	Dropped 1 samples	n/a	n/a	n/a	n/a	n/a	n/a	n/a	1	UoHDataOffsetStream
629.906243	1.701006	nback_3	1918.120255	Steps:3 KeyPress:False Matched:False	1	n/a	3	False	False	n/a	n/a	n/a	n-backMarkers
630.589497	0.004000	dropped_samples	1918.803509	Dropped 1 samples	n/a	n/a	n/a	n/a	n/a	n/a	n/a	1	UoHDataOffsetStream
631.606726	1.701006	nback_3	1919.820738	Steps:3 KeyPress:False Matched:False	1	n/a	3	False	False	n/a	n/a	n/a	n-backMarkers
632.127456	0.004000	dropped_samples	1920.341468	Dropped 1 samples	n/a	n/a	n/a	n/a	n/a	n/a	n/a	1	UoHDataOffsetStream
633.307746	1.701006	nback_3	1921.521758	Steps:3 KeyPress:False Matched:False	1	n/a	3	False	False	n/a	n/a	n/a	n-backMarkers
633.616789	0.004000	dropped_samples	1921.830802	Dropped 1 samples	n/a	n/a	n/a	n/a	n/a	n/a	n/a	1	UoHDataOffsetStream
634.432207	0.012000	dropped_samples	1922.646219	Dropped 3 samples	n/a	n/a	n/a	n/a	n/a	n/a	n/a	3	UoHDataOffsetStream
635.008208	1.701006	nback_3	1923.222221	Steps:3 KeyPress:False Matched:False	1	n/a	3	False	False	n/a	n/a	n/a	n-backMarkers
636.210048	0.004000	dropped_samples	1924.424060	Dropped 1 samples	n/a	n/a	n/a	n/a	n/a	n/a	n/a	1	UoHDataOffsetStream
636.663621	0.008000	dropped_samples	1924.877633	Dropped 2 samples	n/a	n/a	n/a	n/a	n/a	n/a	n/a	2	UoHDataOffsetStream
636.709179	1.701006	nback_3	1924.923192	Steps:3 KeyPress:False Matched:False	1	n/a	3	False	False	n/a	n/a	n/a	n-backMarkers
638.409872	1.701006	nback_3	1926.623884	Steps:3 KeyPress:False Matched:False	1	n/a	3	False	False	n/a	n/a	n/a	n-backMarkers
638.441628	0.004000	dropped_samples	1926.655640	Dropped 1 samples	n/a	n/a	n/a	n/a	n/a	n/a	n/a	1	UoHDataOffsetStream
639.881389	0.008000	dropped_samples	1928.095401	Dropped 2 samples	n/a	n/a	n/a	n/a	n/a	n/a	n/a	2	UoHDataOffsetStream
640.110997	1.701006	nback_3	1928.325009	Steps:3 KeyPress:False Matched:False	1	n/a	3	False	False	n/a	n/a	n/a	n-backMarkers
640.623603	0.008000	dropped_samples	1928.837616	Dropped 2 samples	n/a	n/a	n/a	n/a	n/a	n/a	n/a	2	UoHDataOffsetStream
640.696823	0.004000	dropped_samples	1928.910835	Dropped 1 samples	n/a	n/a	n/a	n/a	n/a	n/a	n/a	1	UoHDataOffsetStream
641.702684	0.004000	dropped_samples	1929.916696	Dropped 1 samples	n/a	n/a	n/a	n/a	n/a	n/a	n/a	1	UoHDataOffsetStream
641.812150	1.701006	nback_3	1930.026163	Steps:3 KeyPress:False Matched:False	1	n/a	3	False	False	n/a	n/a	n/a	n-backMarkers
643.513191	1.701006	nback_3	1931.727204	Steps:3 KeyPress:False Matched:False	1	n/a	3	False	False	n/a	n/a	n/a	n-backMarkers
643.743769	0.004000	dropped_samples	1931.957782	Dropped 1 samples	n/a	n/a	n/a	n/a	n/a	n/a	n/a	1	UoHDataOffsetStream
645.213294	1.701006	nback_3	1933.427306	Steps:3 KeyPress:False Matched:False	1	n/a	3	False	False	n/a	n/a	n/a	n-backMarkers
646.913782	1.701006	nback_3	1935.127795	Steps:3 KeyPress:False Matched:False	1	n/a	3	False	False	n/a	n/a	n/a	n-backMarkers
647.801624	0.004000	dropped_samples	1936.015636	Dropped 1 samples	n/a	n/a	n/a	n/a	n/a	n/a	n/a	1	UoHDataOffsetStream
648.614288	1.701006	nback_3	1936.828300	Steps:3 KeyPress:False Matched:False	1	n/a	3	False	False	n/a	n/a	n/a	n-backMarkers
650.008615	0.004000	dropped_samples	1938.222628	Dropped 1 samples	n/a	n/a	n/a	n/a	n/a	n/a	n/a	1	UoHDataOffsetStream
650.315246	1.701006	nback_3	1938.529259	Steps:3 KeyPress:True Matched:True	1	n/a	3	True	True	n/a	n/a	n/a	n-backMarkers
652.016309	1.701006	nback_3	1940.230321	Steps:3 KeyPress:False Matched:False	1	n/a	3	False	False	n/a	n/a	n/a	n-backMarkers
653.318951	0.008000	dropped_samples	1941.532964	Dropped 2 samples	n/a	n/a	n/a	n/a	n/a	n/a	n/a	2	UoHDataOffsetStream
653.717318	1.701006	nback_3	1941.931330	Steps:3 KeyPress:False Matched:False	1	n/a	3	False	False	n/a	n/a	n/a	n-backMarkers
653.846331	0.004000	dropped_samples	1942.060344	Dropped 1 samples	n/a	n/a	n/a	n/a	n/a	n/a	n/a	1	UoHDataOffsetStream
655.418199	1.701006	nback_3	1943.632211	Steps:3 KeyPress:False Matched:False	1	n/a	3	False	False	n/a	n/a	n/a	n-backMarkers
657.120056	1.701006	nback_3	1945.334068	Steps:3 KeyPress:False Matched:False	1	n/a	3	False	False	n/a	n/a	n/a	n-backMarkers
658.820374	1.701006	nback_3	1947.034386	Steps:3 KeyPress:False Matched:False	1	n/a	3	False	False	n/a	n/a	n/a	n-backMarkers
660.520715	1.701006	nback_3	1948.734727	Steps:3 KeyPress:False Matched:False	1	n/a	3	False	False	n/a	n/a	n/a	n-backMarkers
661.937228	0.004000	dropped_samples	1950.151240	Dropped 1 samples	n/a	n/a	n/a	n/a	n/a	n/a	n/a	1	UoHDataOffsetStream
662.222273	1.701006	nback_3	1950.436285	Steps:3 KeyPress:False Matched:False	1	n/a	3	False	False	n/a	n/a	n/a	n-backMarkers
662.943049	0.004000	dropped_samples	1951.157062	Dropped 1 samples	n/a	n/a	n/a	n/a	n/a	n/a	n/a	1	UoHDataOffsetStream
663.856087	0.012000	dropped_samples	1952.070100	Dropped 3 samples	n/a	n/a	n/a	n/a	n/a	n/a	n/a	3	UoHDataOffsetStream
663.922437	1.701006	nback_3	1952.136450	Steps:3 KeyPress:False Matched:False	1	n/a	3	False	False	n/a	n/a	n/a	n-backMarkers
664.861992	0.004000	dropped_samples	1953.076004	Dropped 1 samples	n/a	n/a	n/a	n/a	n/a	n/a	n/a	1	UoHDataOffsetStream
665.349210	0.004000	dropped_samples	1953.563222	Dropped 1 samples	n/a	n/a	n/a	n/a	n/a	n/a	n/a	1	UoHDataOffsetStream
665.623524	1.701006	nback_3	1953.837537	Steps:3 KeyPress:True Matched:False	0	n/a	3	True	False	n/a	n/a	n/a	n-backMarkers
666.065163	0.004000	dropped_samples	1954.279175	Dropped 1 samples	n/a	n/a	n/a	n/a	n/a	n/a	n/a	1	UoHDataOffsetStream
667.324910	1.701006	nback_3	1955.538922	Steps:3 KeyPress:False Matched:False	1	n/a	3	False	False	n/a	n/a	n/a	n-backMarkers
668.992909	0.004000	dropped_samples	1957.206921	Dropped 1 samples	n/a	n/a	n/a	n/a	n/a	n/a	n/a	1	UoHDataOffsetStream
669.026214	1.701006	nback_3	1957.240227	Steps:3 KeyPress:False Matched:False	1	n/a	3	False	False	n/a	n/a	n/a	n-backMarkers
669.158985	0.004000	dropped_samples	1957.372997	Dropped 1 samples	n/a	n/a	n/a	n/a	n/a	n/a	n/a	1	UoHDataOffsetStream
670.379660	0.004000	dropped_samples	1958.593672	Dropped 1 samples	n/a	n/a	n/a	n/a	n/a	n/a	n/a	1	UoHDataOffsetStream
670.727299	1.701006	nback_3	1958.941311	Steps:3 KeyPress:True Matched:False	0	n/a	3	True	False	n/a	n/a	n/a	n-backMarkers
672.427997	1.701006	nback_3	1960.642009	Steps:3 KeyPress:False Matched:False	1	n/a	3	False	False	n/a	n/a	n/a	n-backMarkers
674.128459	1.701006	nback_3	1962.342471	Steps:3 KeyPress:False Matched:False	1	n/a	3	False	False	n/a	n/a	n/a	n-backMarkers
675.829037	1.701006	nback_3	1964.043050	Steps:3 KeyPress:False Matched:False	1	n/a	3	False	False	n/a	n/a	n/a	n-backMarkers
676.072905	0.008000	dropped_samples	1964.286917	Dropped 2 samples	n/a	n/a	n/a	n/a	n/a	n/a	n/a	2	UoHDataOffsetStream
676.190106	0.004000	dropped_samples	1964.404118	Dropped 1 samples	n/a	n/a	n/a	n/a	n/a	n/a	n/a	1	UoHDataOffsetStream
676.717425	0.004000	dropped_samples	1964.931438	Dropped 1 samples	n/a	n/a	n/a	n/a	n/a	n/a	n/a	1	UoHDataOffsetStream
677.055278	0.004000	dropped_samples	1965.269291	Dropped 1 samples	n/a	n/a	n/a	n/a	n/a	n/a	n/a	1	UoHDataOffsetStream
677.530295	1.701006	nback_3	1965.744308	Steps:3 KeyPress:True Matched:False	0	n/a	3	True	False	n/a	n/a	n/a	n-backMarkers
679.231328	1.701006	nback_3	1967.445340	Steps:3 KeyPress:False Matched:False	1	n/a	3	False	False	n/a	n/a	n/a	n-backMarkers
679.622824	0.004000	dropped_samples	1967.836836	Dropped 1 samples	n/a	n/a	n/a	n/a	n/a	n/a	n/a	1	UoHDataOffsetStream
680.932240	1.701006	nback_3	1969.146252	Steps:3 KeyPress:False Matched:False	1	n/a	3	False	False	n/a	n/a	n/a	n-backMarkers
682.633208	1.701006	nback_3	1970.847220	Steps:3 KeyPress:False Matched:False	1	n/a	3	False	False	n/a	n/a	n/a	n-backMarkers
682.816573	0.012000	dropped_samples	1971.030586	Dropped 3 samples	n/a	n/a	n/a	n/a	n/a	n/a	n/a	3	UoHDataOffsetStream
683.006608	0.008000	dropped_samples	1971.220620	Dropped 2 samples	n/a	n/a	n/a	n/a	n/a	n/a	n/a	2	UoHDataOffsetStream
684.334224	1.701006	nback_3	1972.548236	Steps:3 KeyPress:True Matched:False	0	n/a	3	True	False	n/a	n/a	n/a	n-backMarkers
686.035390	1.701006	nback_3	1974.249402	Steps:3 KeyPress:False Matched:False	1	n/a	3	False	False	n/a	n/a	n/a	n-backMarkers
