onset	duration	trial_type	timestamp_lsl	marker	response_accuracy	nback_level	key_press	matched	outcome	istutorial	dropped_samples	marker_stream
1.200394	0.004000	dropped_samples	5247.167054	Dropped 1 samples	n/a	n/a	n/a	n/a	n/a	n/a	1	UoHDataOffsetStream
2.904245	0.004000	dropped_samples	5248.870905	Dropped 1 samples	n/a	n/a	n/a	n/a	n/a	n/a	1	UoHDataOffsetStream
13.320386	0.004000	dropped_samples	5259.287047	Dropped 1 samples	n/a	n/a	n/a	n/a	n/a	n/a	1	UoHDataOffsetStream
14.134696	0.004000	dropped_samples	5260.101357	Dropped 1 samples	n/a	n/a	n/a	n/a	n/a	n/a	1	UoHDataOffsetStream
15.072272	0.004000	dropped_samples	5261.038932	Dropped 1 samples	n/a	n/a	n/a	n/a	n/a	n/a	1	UoHDataOffsetStream
15.526376	0.004000	dropped_samples	5261.493037	Dropped 1 samples	n/a	n/a	n/a	n/a	n/a	n/a	1	UoHDataOffsetStream
22.874977	0.020000	dropped_samples	5268.841637	Dropped 5 samples	n/a	n/a	n/a	n/a	n/a	n/a	5	UoHDataOffsetStream
25.948660	0.004000	dropped_samples	5271.915321	Dropped 1 samples	n/a	n/a	n/a	n/a	n/a	n/a	1	UoHDataOffsetStream
25.995141	0.004000	dropped_samples	5271.961802	Dropped 1 samples	n/a	n/a	n/a	n/a	n/a	n/a	1	UoHDataOffsetStream
26.762450	0.028000	dropped_samples	5272.729111	Dropped 7 samples	n/a	n/a	n/a	n/a	n/a	n/a	7	UoHDataOffsetStream
27.334425	0.004000	dropped_samples	5273.301085	Dropped 1 samples	n/a	n/a	n/a	n/a	n/a	n/a	1	UoHDataOffsetStream
27.394884	0.012000	dropped_samples	5273.361544	Dropped 3 samples	n/a	n/a	n/a	n/a	n/a	n/a	3	UoHDataOffsetStream
29.059102	0.004000	dropped_samples	5275.025763	Dropped 1 samples	n/a	n/a	n/a	n/a	n/a	n/a	1	UoHDataOffsetStream
29.284603	0.008000	dropped_samples	5275.251264	Dropped 2 samples	n/a	n/a	n/a	n/a	n/a	n/a	2	UoHDataOffsetStream
30.279624	0.008000	dropped_samples	5276.246284	Dropped 2 samples	n/a	n/a	n/a	n/a	n/a	n/a	2	UoHDataOffsetStream
32.640612	0.020000	dropped_samples	5278.607273	Dropped 5 samples	n/a	n/a	n/a	n/a	n/a	n/a	5	UoHDataOffsetStream
33.654265	0.008000	dropped_samples	5279.620926	Dropped 2 samples	n/a	n/a	n/a	n/a	n/a	n/a	2	UoHDataOffsetStream
33.684674	0.004000	dropped_samples	5279.651334	Dropped 1 samples	n/a	n/a	n/a	n/a	n/a	n/a	1	UoHDataOffsetStream
34.028568	0.016000	dropped_samples	5279.995229	Dropped 4 samples	n/a	n/a	n/a	n/a	n/a	n/a	4	UoHDataOffsetStream
34.056660	0.024000	dropped_samples	5280.023320	Dropped 6 samples	n/a	n/a	n/a	n/a	n/a	n/a	6	UoHDataOffsetStream
38.593993	0.008000	dropped_samples	5284.560654	Dropped 2 samples	n/a	n/a	n/a	n/a	n/a	n/a	2	UoHDataOffsetStream
43.733294	0.004000	dropped_samples	5289.699955	Dropped 1 samples	n/a	n/a	n/a	n/a	n/a	n/a	1	UoHDataOffsetStream
53.016754	0.004000	dropped_samples	5298.983414	Dropped 1 samples	n/a	n/a	n/a	n/a	n/a	n/a	1	UoHDataOffsetStream
54.079596	0.000000	started_tutorial_n_back	5300.046256	Started tutorial n-back	n/a	n/a	n/a	n/a	n/a	true	n/a	n-backMarkers
54.844933	0.004000	dropped_samples	5300.811593	Dropped 1 samples	n/a	n/a	n/a	n/a	n/a	n/a	1	UoHDataOffsetStream
57.723812	0.008000	dropped_samples	5303.690472	Dropped 2 samples	n/a	n/a	n/a	n/a	n/a	n/a	2	UoHDataOffsetStream
59.422966	0.032000	dropped_samples	5305.389627	Dropped 8 samples	n/a	n/a	n/a	n/a	n/a	n/a	8	UoHDataOffsetStream
61.286159	0.020000	dropped_samples	5307.252820	Dropped 5 samples	n/a	n/a	n/a	n/a	n/a	n/a	5	UoHDataOffsetStream
61.519701	0.008000	dropped_samples	5307.486362	Dropped 2 samples	n/a	n/a	n/a	n/a	n/a	n/a	2	UoHDataOffsetStream
61.561595	0.024000	dropped_samples	5307.528255	Dropped 6 samples	n/a	n/a	n/a	n/a	n/a	n/a	6	UoHDataOffsetStream
61.708150	0.004000	dropped_samples	5307.674810	Dropped 1 samples	n/a	n/a	n/a	n/a	n/a	n/a	1	UoHDataOffsetStream
61.825280	0.004000	dropped_samples	5307.791941	Dropped 1 samples	n/a	n/a	n/a	n/a	n/a	n/a	1	UoHDataOffsetStream
63.216979	0.004000	dropped_samples	5309.183639	Dropped 1 samples	n/a	n/a	n/a	n/a	n/a	n/a	1	UoHDataOffsetStream
65.687577	0.008000	dropped_samples	5311.654237	Dropped 2 samples	n/a	n/a	n/a	n/a	n/a	n/a	2	UoHDataOffsetStream
65.785260	0.004000	dropped_samples	5311.751920	Dropped 1 samples	n/a	n/a	n/a	n/a	n/a	n/a	1	UoHDataOffsetStream
66.923672	0.004000	dropped_samples	5312.890333	Dropped 1 samples	n/a	n/a	n/a	n/a	n/a	n/a	1	UoHDataOffsetStream
67.929306	0.012000	dropped_samples	5313.895966	Dropped 3 samples	n/a	n/a	n/a	n/a	n/a	n/a	3	UoHDataOffsetStream
67.930679	0.096000	dropped_samples	5313.897339	Dropped 24 samples	n/a	n/a	n/a	n/a	n/a	n/a	24	UoHDataOffsetStream
67.967903	0.016000	dropped_samples	5313.934563	Dropped 4 samples	n/a	n/a	n/a	n/a	n/a	n/a	4	UoHDataOffsetStream
68.979169	0.004000	dropped_samples	5314.945830	Dropped 1 samples	n/a	n/a	n/a	n/a	n/a	n/a	1	UoHDataOffsetStream
69.546259	0.008000	dropped_samples	5315.512919	Dropped 2 samples	n/a	n/a	n/a	n/a	n/a	n/a	2	UoHDataOffsetStream
72.504345	0.004000	dropped_samples	5318.471006	Dropped 1 samples	n/a	n/a	n/a	n/a	n/a	n/a	1	UoHDataOffsetStream
78.075342	0.004000	dropped_samples	5324.042003	Dropped 1 samples	n/a	n/a	n/a	n/a	n/a	n/a	1	UoHDataOffsetStream
78.530925	0.004000	dropped_samples	5324.497586	Dropped 1 samples	n/a	n/a	n/a	n/a	n/a	n/a	1	UoHDataOffsetStream
81.073723	0.004000	dropped_samples	5327.040383	Dropped 1 samples	n/a	n/a	n/a	n/a	n/a	n/a	1	UoHDataOffsetStream
83.232776	0.012000	dropped_samples	5329.199437	Dropped 3 samples	n/a	n/a	n/a	n/a	n/a	n/a	3	UoHDataOffsetStream
84.870641	0.028000	dropped_samples	5330.837301	Dropped 7 samples	n/a	n/a	n/a	n/a	n/a	n/a	7	UoHDataOffsetStream
86.112504	0.056000	dropped_samples	5332.079164	Dropped 14 samples	n/a	n/a	n/a	n/a	n/a	n/a	14	UoHDataOffsetStream
86.552824	0.008000	dropped_samples	5332.519484	Dropped 2 samples	n/a	n/a	n/a	n/a	n/a	n/a	2	UoHDataOffsetStream
86.645709	0.004000	dropped_samples	5332.612370	Dropped 1 samples	n/a	n/a	n/a	n/a	n/a	n/a	1	UoHDataOffsetStream
86.952316	0.004000	dropped_samples	5332.918977	Dropped 1 samples	n/a	n/a	n/a	n/a	n/a	n/a	1	UoHDataOffsetStream
87.963156	0.004000	dropped_samples	5333.929816	Dropped 1 samples	n/a	n/a	n/a	n/a	n/a	n/a	1	UoHDataOffsetStream
92.279445	0.004000	dropped_samples	5338.246105	Dropped 1 samples	n/a	n/a	n/a	n/a	n/a	n/a	1	UoHDataOffsetStream
92.665186	0.012000	dropped_samples	5338.631847	Dropped 3 samples	n/a	n/a	n/a	n/a	n/a	n/a	3	UoHDataOffsetStream
93.793116	0.012000	dropped_samples	5339.759776	Dropped 3 samples	n/a	n/a	n/a	n/a	n/a	n/a	3	UoHDataOffsetStream
97.176955	0.004000	dropped_samples	5343.143615	Dropped 1 samples	n/a	n/a	n/a	n/a	n/a	n/a	1	UoHDataOffsetStream
97.736359	0.008000	dropped_samples	5343.703020	Dropped 2 samples	n/a	n/a	n/a	n/a	n/a	n/a	2	UoHDataOffsetStream
97.777539	0.016000	dropped_samples	5343.744199	Dropped 4 samples	n/a	n/a	n/a	n/a	n/a	n/a	4	UoHDataOffsetStream
98.468421	0.004000	dropped_samples	5344.435082	Dropped 1 samples	n/a	n/a	n/a	n/a	n/a	n/a	1	UoHDataOffsetStream
104.305870	0.004000	dropped_samples	5350.272531	Dropped 1 samples	n/a	n/a	n/a	n/a	n/a	n/a	1	UoHDataOffsetStream
107.315206	0.024000	dropped_samples	5353.281867	Dropped 6 samples	n/a	n/a	n/a	n/a	n/a	n/a	6	UoHDataOffsetStream
107.475844	0.024000	dropped_samples	5353.442504	Dropped 6 samples	n/a	n/a	n/a	n/a	n/a	n/a	6	UoHDataOffsetStream
108.126167	0.032000	dropped_samples	5354.092828	Dropped 8 samples	n/a	n/a	n/a	n/a	n/a	n/a	8	UoHDataOffsetStream
108.292968	0.008000	dropped_samples	5354.259629	Dropped 2 samples	n/a	n/a	n/a	n/a	n/a	n/a	2	UoHDataOffsetStream
108.605012	0.036000	dropped_samples	5354.571673	Dropped 9 samples	n/a	n/a	n/a	n/a	n/a	n/a	9	UoHDataOffsetStream
109.010561	0.012000	dropped_samples	5354.977221	Dropped 3 samples	n/a	n/a	n/a	n/a	n/a	n/a	3	UoHDataOffsetStream
109.181012	0.008000	dropped_samples	5355.147673	Dropped 2 samples	n/a	n/a	n/a	n/a	n/a	n/a	2	UoHDataOffsetStream
110.521716	0.004000	dropped_samples	5356.488377	Dropped 1 samples	n/a	n/a	n/a	n/a	n/a	n/a	1	UoHDataOffsetStream
112.562752	0.004000	dropped_samples	5358.529413	Dropped 1 samples	n/a	n/a	n/a	n/a	n/a	n/a	1	UoHDataOffsetStream
112.810715	0.004000	dropped_samples	5358.777376	Dropped 1 samples	n/a	n/a	n/a	n/a	n/a	n/a	1	UoHDataOffsetStream
112.850801	0.012000	dropped_samples	5358.817461	Dropped 3 samples	n/a	n/a	n/a	n/a	n/a	n/a	3	UoHDataOffsetStream
113.566524	0.012000	dropped_samples	5359.533184	Dropped 3 samples	n/a	n/a	n/a	n/a	n/a	n/a	3	UoHDataOffsetStream
113.617421	0.036000	dropped_samples	5359.584082	Dropped 9 samples	n/a	n/a	n/a	n/a	n/a	n/a	9	UoHDataOffsetStream
116.425043	0.012000	dropped_samples	5362.391703	Dropped 3 samples	n/a	n/a	n/a	n/a	n/a	n/a	3	UoHDataOffsetStream
117.356981	0.004000	dropped_samples	5363.323642	Dropped 1 samples	n/a	n/a	n/a	n/a	n/a	n/a	1	UoHDataOffsetStream
117.479739	0.004000	dropped_samples	5363.446400	Dropped 1 samples	n/a	n/a	n/a	n/a	n/a	n/a	1	UoHDataOffsetStream
119.165148	0.012000	dropped_samples	5365.131808	Dropped 3 samples	n/a	n/a	n/a	n/a	n/a	n/a	3	UoHDataOffsetStream
119.395099	0.020000	dropped_samples	5365.361760	Dropped 5 samples	n/a	n/a	n/a	n/a	n/a	n/a	5	UoHDataOffsetStream
119.496492	0.016000	dropped_samples	5365.463153	Dropped 4 samples	n/a	n/a	n/a	n/a	n/a	n/a	4	UoHDataOffsetStream
119.979734	0.004000	dropped_samples	5365.946395	Dropped 1 samples	n/a	n/a	n/a	n/a	n/a	n/a	1	UoHDataOffsetStream
121.079478	0.000000	1-back	5367.046138	Steps:1 KeyPress:False Matched:False	1	1	false	false	Correct	true	n/a	n-backMarkers
121.614360	0.012000	dropped_samples	5367.581021	Dropped 3 samples	n/a	n/a	n/a	n/a	n/a	n/a	3	UoHDataOffsetStream
121.659461	0.028000	dropped_samples	5367.626121	Dropped 7 samples	n/a	n/a	n/a	n/a	n/a	n/a	7	UoHDataOffsetStream
122.780245	0.000000	1-back	5368.746905	Steps:1 KeyPress:False Matched:False	1	1	false	false	Correct	true	n/a	n-backMarkers
124.480445	0.000000	1-back	5370.447106	Steps:1 KeyPress:False Matched:False	1	1	false	false	Correct	true	n/a	n-backMarkers
125.761043	0.004000	dropped_samples	5371.727704	Dropped 1 samples	n/a	n/a	n/a	n/a	n/a	n/a	1	UoHDataOffsetStream
126.181367	0.000000	1-back	5372.148028	Steps:1 KeyPress:True Matched:False	0	1	true	false	Wrong	true	n/a	n-backMarkers
127.882506	0.000000	1-back	5373.849166	Steps:1 KeyPress:False Matched:False	1	1	false	false	Correct	true	n/a	n-backMarkers
129.583261	0.000000	1-back	5375.549922	Steps:1 KeyPress:True Matched:False	0	1	true	false	Wrong	true	n/a	n-backMarkers
131.284177	0.000000	1-back	5377.250837	Steps:1 KeyPress:False Matched:False	1	1	false	false	Correct	true	n/a	n-backMarkers
132.411485	0.004000	dropped_samples	5378.378146	Dropped 1 samples	n/a	n/a	n/a	n/a	n/a	n/a	1	UoHDataOffsetStream
132.985013	0.000000	1-back	5378.951673	Steps:1 KeyPress:True Matched:False	0	1	true	false	Wrong	true	n/a	n-backMarkers
134.686430	0.000000	1-back	5380.653090	Steps:1 KeyPress:False Matched:False	1	1	false	false	Correct	true	n/a	n-backMarkers
136.387285	0.000000	1-back	5382.353945	Steps:1 KeyPress:True Matched:False	0	1	true	false	Wrong	true	n/a	n-backMarkers
137.186827	0.004000	dropped_samples	5383.153488	Dropped 1 samples	n/a	n/a	n/a	n/a	n/a	n/a	1	UoHDataOffsetStream
137.284473	0.004000	dropped_samples	5383.251133	Dropped 1 samples	n/a	n/a	n/a	n/a	n/a	n/a	1	UoHDataOffsetStream
138.088233	0.000000	1-back	5384.054893	Steps:1 KeyPress:False Matched:False	1	1	false	false	Correct	true	n/a	n-backMarkers
139.789796	0.000000	1-back	5385.756457	Steps:1 KeyPress:True Matched:False	0	1	true	false	Wrong	true	n/a	n-backMarkers
141.492249	0.000000	1-back	5387.458910	Steps:1 KeyPress:False Matched:False	1	1	false	false	Correct	true	n/a	n-backMarkers
143.193856	0.000000	1-back	5389.160517	Steps:1 KeyPress:True Matched:False	0	1	true	false	Wrong	true	n/a	n-backMarkers
144.893883	0.000000	1-back	5390.860543	Steps:1 KeyPress:False Matched:True	0	1	false	true	Wrong	true	n/a	n-backMarkers
146.594372	0.000000	1-back	5392.561033	Steps:1 KeyPress:False Matched:True	0	1	false	true	Wrong	true	n/a	n-backMarkers
148.295389	0.000000	1-back	5394.262050	Steps:1 KeyPress:True Matched:False	0	1	true	false	Wrong	true	n/a	n-backMarkers
149.760120	0.004000	dropped_samples	5395.726780	Dropped 1 samples	n/a	n/a	n/a	n/a	n/a	n/a	1	UoHDataOffsetStream
149.997606	0.000000	1-back	5395.964266	Steps:1 KeyPress:True Matched:True	1	1	true	true	Correct	true	n/a	n-backMarkers
151.698833	0.000000	1-back	5397.665494	Steps:1 KeyPress:False Matched:True	0	1	false	true	Wrong	true	n/a	n-backMarkers
153.399786	0.000000	1-back	5399.366447	Steps:1 KeyPress:False Matched:False	1	1	false	false	Correct	true	n/a	n-backMarkers
155.101513	0.000000	1-back	5401.068174	Steps:1 KeyPress:True Matched:False	0	1	true	false	Wrong	true	n/a	n-backMarkers
156.962249	0.012000	dropped_samples	5402.928909	Dropped 3 samples	n/a	n/a	n/a	n/a	n/a	n/a	3	UoHDataOffsetStream
157.949812	0.004000	dropped_samples	5403.916473	Dropped 1 samples	n/a	n/a	n/a	n/a	n/a	n/a	1	UoHDataOffsetStream
160.492557	0.004000	dropped_samples	5406.459218	Dropped 1 samples	n/a	n/a	n/a	n/a	n/a	n/a	1	UoHDataOffsetStream
163.804273	0.000000	2-back	5409.770933	Steps:2 KeyPress:False Matched:False	1	2	false	false	Correct	true	n/a	n-backMarkers
165.505745	0.000000	2-back	5411.472406	Steps:2 KeyPress:False Matched:False	1	2	false	false	Correct	true	n/a	n-backMarkers
167.207263	0.000000	2-back	5413.173923	Steps:2 KeyPress:False Matched:False	1	2	false	false	Correct	true	n/a	n-backMarkers
168.907980	0.000000	2-back	5414.874641	Steps:2 KeyPress:False Matched:False	1	2	false	false	Correct	true	n/a	n-backMarkers
170.611112	0.000000	2-back	5416.577772	Steps:2 KeyPress:True Matched:False	0	2	true	false	Wrong	true	n/a	n-backMarkers
171.845137	0.004000	dropped_samples	5417.811797	Dropped 1 samples	n/a	n/a	n/a	n/a	n/a	n/a	1	UoHDataOffsetStream
172.312426	0.000000	2-back	5418.279086	Steps:2 KeyPress:False Matched:True	0	2	false	true	Wrong	true	n/a	n-backMarkers
173.378300	0.012000	dropped_samples	5419.344961	Dropped 3 samples	n/a	n/a	n/a	n/a	n/a	n/a	3	UoHDataOffsetStream
174.014081	0.000000	2-back	5419.980742	Steps:2 KeyPress:False Matched:False	1	2	false	false	Correct	true	n/a	n-backMarkers
174.340214	0.004000	dropped_samples	5420.306875	Dropped 1 samples	n/a	n/a	n/a	n/a	n/a	n/a	1	UoHDataOffsetStream
175.714942	0.000000	2-back	5421.681602	Steps:2 KeyPress:False Matched:False	1	2	false	false	Correct	true	n/a	n-backMarkers
177.416028	0.000000	2-back	5423.382689	Steps:2 KeyPress:True Matched:False	0	2	true	false	Wrong	true	n/a	n-backMarkers
177.938900	0.004000	dropped_samples	5423.905560	Dropped 1 samples	n/a	n/a	n/a	n/a	n/a	n/a	1	UoHDataOffsetStream
179.117297	0.000000	2-back	5425.083957	Steps:2 KeyPress:False Matched:True	0	2	false	true	Wrong	true	n/a	n-backMarkers
180.818315	0.000000	2-back	5426.784976	Steps:2 KeyPress:False Matched:False	1	2	false	false	Correct	true	n/a	n-backMarkers
182.519294	0.000000	2-back	5428.485955	Steps:2 KeyPress:False Matched:False	1	2	false	false	Correct	true	n/a	n-backMarkers
184.220331	0.000000	2-back	5430.186992	Steps:2 KeyPress:True Matched:False	0	2	true	false	Wrong	true	n/a	n-backMarkers
185.263903	0.004000	dropped_samples	5431.230564	Dropped 1 samples	n/a	n/a	n/a	n/a	n/a	n/a	1	UoHDataOffsetStream
185.921630	0.000000	2-back	5431.888291	Steps:2 KeyPress:False Matched:False	1	2	false	false	Correct	true	n/a	n-backMarkers
186.576590	0.004000	dropped_samples	5432.543251	Dropped 1 samples	n/a	n/a	n/a	n/a	n/a	n/a	1	UoHDataOffsetStream
187.622814	0.000000	2-back	5433.589474	Steps:2 KeyPress:False Matched:False	1	2	false	false	Correct	true	n/a	n-backMarkers
187.952920	0.004000	dropped_samples	5433.919581	Dropped 1 samples	n/a	n/a	n/a	n/a	n/a	n/a	1	UoHDataOffsetStream
189.323260	0.000000	2-back	5435.289921	Steps:2 KeyPress:True Matched:False	0	2	true	false	Wrong	true	n/a	n-backMarkers
189.340316	0.004000	dropped_samples	5435.306977	Dropped 1 samples	n/a	n/a	n/a	n/a	n/a	n/a	1	UoHDataOffsetStream
191.025240	0.000000	2-back	5436.991901	Steps:2 KeyPress:False Matched:True	0	2	false	true	Wrong	true	n/a	n-backMarkers
191.689102	0.004000	dropped_samples	5437.655762	Dropped 1 samples	n/a	n/a	n/a	n/a	n/a	n/a	1	UoHDataOffsetStream
192.726152	0.000000	2-back	5438.692813	Steps:2 KeyPress:False Matched:False	1	2	false	false	Correct	true	n/a	n-backMarkers
194.354944	0.004000	dropped_samples	5440.321604	Dropped 1 samples	n/a	n/a	n/a	n/a	n/a	n/a	1	UoHDataOffsetStream
194.427171	0.000000	2-back	5440.393832	Steps:2 KeyPress:False Matched:True	0	2	false	true	Wrong	true	n/a	n-backMarkers
194.428417	0.004000	dropped_samples	5440.395078	Dropped 1 samples	n/a	n/a	n/a	n/a	n/a	n/a	1	UoHDataOffsetStream
196.128012	0.000000	2-back	5442.094672	Steps:2 KeyPress:True Matched:False	0	2	true	false	Wrong	true	n/a	n-backMarkers
197.187982	0.004000	dropped_samples	5443.154643	Dropped 1 samples	n/a	n/a	n/a	n/a	n/a	n/a	1	UoHDataOffsetStream
200.307081	0.004000	dropped_samples	5446.273742	Dropped 1 samples	n/a	n/a	n/a	n/a	n/a	n/a	1	UoHDataOffsetStream
204.829261	0.000000	3-back	5450.795921	Steps:3 KeyPress:False Matched:False	1	3	false	false	Correct	true	n/a	n-backMarkers
206.234850	0.004000	dropped_samples	5452.201511	Dropped 1 samples	n/a	n/a	n/a	n/a	n/a	n/a	1	UoHDataOffsetStream
206.529951	0.000000	3-back	5452.496611	Steps:3 KeyPress:False Matched:False	1	3	false	false	Correct	true	n/a	n-backMarkers
207.987768	0.004000	dropped_samples	5453.954429	Dropped 1 samples	n/a	n/a	n/a	n/a	n/a	n/a	1	UoHDataOffsetStream
208.231216	0.000000	3-back	5454.197877	Steps:3 KeyPress:False Matched:False	1	3	false	false	Correct	true	n/a	n-backMarkers
209.932379	0.000000	3-back	5455.899040	Steps:3 KeyPress:True Matched:False	0	3	true	false	Wrong	true	n/a	n-backMarkers
211.633897	0.000000	3-back	5457.600557	Steps:3 KeyPress:False Matched:True	0	3	false	true	Wrong	true	n/a	n-backMarkers
213.333816	0.000000	3-back	5459.300476	Steps:3 KeyPress:False Matched:False	1	3	false	false	Correct	true	n/a	n-backMarkers
215.033874	0.000000	3-back	5461.000534	Steps:3 KeyPress:False Matched:False	1	3	false	false	Correct	true	n/a	n-backMarkers
216.508455	0.004000	dropped_samples	5462.475116	Dropped 1 samples	n/a	n/a	n/a	n/a	n/a	n/a	1	UoHDataOffsetStream
216.734338	0.000000	3-back	5462.700998	Steps:3 KeyPress:False Matched:False	1	3	false	false	Correct	true	n/a	n-backMarkers
218.435294	0.000000	3-back	5464.401954	Steps:3 KeyPress:False Matched:False	1	3	false	false	Correct	true	n/a	n-backMarkers
219.052287	0.012000	dropped_samples	5465.018948	Dropped 3 samples	n/a	n/a	n/a	n/a	n/a	n/a	3	UoHDataOffsetStream
220.136369	0.000000	3-back	5466.103030	Steps:3 KeyPress:True Matched:True	1	3	true	true	Correct	true	n/a	n-backMarkers
221.837729	0.000000	3-back	5467.804390	Steps:3 KeyPress:False Matched:True	0	3	false	true	Wrong	true	n/a	n-backMarkers
223.538139	0.000000	3-back	5469.504800	Steps:3 KeyPress:False Matched:False	1	3	false	false	Correct	true	n/a	n-backMarkers
225.240142	0.000000	3-back	5471.206803	Steps:3 KeyPress:False Matched:False	1	3	false	false	Correct	true	n/a	n-backMarkers
226.941550	0.000000	3-back	5472.908211	Steps:3 KeyPress:False Matched:False	1	3	false	false	Correct	true	n/a	n-backMarkers
228.643095	0.000000	3-back	5474.609755	Steps:3 KeyPress:False Matched:False	1	3	false	false	Correct	true	n/a	n-backMarkers
229.057161	0.004000	dropped_samples	5475.023822	Dropped 1 samples	n/a	n/a	n/a	n/a	n/a	n/a	1	UoHDataOffsetStream
229.678810	0.008000	dropped_samples	5475.645471	Dropped 2 samples	n/a	n/a	n/a	n/a	n/a	n/a	2	UoHDataOffsetStream
229.732026	0.012000	dropped_samples	5475.698687	Dropped 3 samples	n/a	n/a	n/a	n/a	n/a	n/a	3	UoHDataOffsetStream
230.344317	0.000000	3-back	5476.310978	Steps:3 KeyPress:False Matched:False	1	3	false	false	Correct	true	n/a	n-backMarkers
230.722428	0.004000	dropped_samples	5476.689089	Dropped 1 samples	n/a	n/a	n/a	n/a	n/a	n/a	1	UoHDataOffsetStream
230.795892	0.008000	dropped_samples	5476.762553	Dropped 2 samples	n/a	n/a	n/a	n/a	n/a	n/a	2	UoHDataOffsetStream
230.866511	0.008000	dropped_samples	5476.833171	Dropped 2 samples	n/a	n/a	n/a	n/a	n/a	n/a	2	UoHDataOffsetStream
231.551756	0.004000	dropped_samples	5477.518416	Dropped 1 samples	n/a	n/a	n/a	n/a	n/a	n/a	1	UoHDataOffsetStream
231.731972	0.024000	dropped_samples	5477.698633	Dropped 6 samples	n/a	n/a	n/a	n/a	n/a	n/a	6	UoHDataOffsetStream
232.046091	0.000000	3-back	5478.012751	Steps:3 KeyPress:False Matched:False	1	3	false	false	Correct	true	n/a	n-backMarkers
233.747386	0.000000	3-back	5479.714046	Steps:3 KeyPress:False Matched:False	1	3	false	false	Correct	true	n/a	n-backMarkers
234.989798	0.024000	dropped_samples	5480.956458	Dropped 6 samples	n/a	n/a	n/a	n/a	n/a	n/a	6	UoHDataOffsetStream
235.449517	0.000000	3-back	5481.416177	Steps:3 KeyPress:False Matched:False	1	3	false	false	Correct	true	n/a	n-backMarkers
237.150856	0.000000	3-back	5483.117517	Steps:3 KeyPress:False Matched:False	1	3	false	false	Correct	true	n/a	n-backMarkers
237.626749	0.004000	dropped_samples	5483.593410	Dropped 1 samples	n/a	n/a	n/a	n/a	n/a	n/a	1	UoHDataOffsetStream
237.807887	0.004000	dropped_samples	5483.774548	Dropped 1 samples	n/a	n/a	n/a	n/a	n/a	n/a	1	UoHDataOffsetStream
237.939450	0.004000	dropped_samples	5483.906111	Dropped 1 samples	n/a	n/a	n/a	n/a	n/a	n/a	1	UoHDataOffsetStream
238.564468	0.004000	dropped_samples	5484.531128	Dropped 1 samples	n/a	n/a	n/a	n/a	n/a	n/a	1	UoHDataOffsetStream
238.848300	0.008000	dropped_samples	5484.814961	Dropped 2 samples	n/a	n/a	n/a	n/a	n/a	n/a	2	UoHDataOffsetStream
241.899220	0.004000	dropped_samples	5487.865880	Dropped 1 samples	n/a	n/a	n/a	n/a	n/a	n/a	1	UoHDataOffsetStream
242.919586	0.008000	dropped_samples	5488.886246	Dropped 2 samples	n/a	n/a	n/a	n/a	n/a	n/a	2	UoHDataOffsetStream
242.956002	0.004000	dropped_samples	5488.922662	Dropped 1 samples	n/a	n/a	n/a	n/a	n/a	n/a	1	UoHDataOffsetStream
245.841618	0.000000	4-back	5491.808278	Steps:4 KeyPress:False Matched:False	1	4	false	false	Correct	true	n/a	n-backMarkers
245.981159	0.004000	dropped_samples	5491.947819	Dropped 1 samples	n/a	n/a	n/a	n/a	n/a	n/a	1	UoHDataOffsetStream
247.542038	0.000000	4-back	5493.508699	Steps:4 KeyPress:False Matched:False	1	4	false	false	Correct	true	n/a	n-backMarkers
249.243617	0.000000	4-back	5495.210277	Steps:4 KeyPress:False Matched:False	1	4	false	false	Correct	true	n/a	n-backMarkers
250.945303	0.000000	4-back	5496.911964	Steps:4 KeyPress:False Matched:True	0	4	false	true	Wrong	true	n/a	n-backMarkers
252.245694	0.004000	dropped_samples	5498.212354	Dropped 1 samples	n/a	n/a	n/a	n/a	n/a	n/a	1	UoHDataOffsetStream
252.646213	0.000000	4-back	5498.612874	Steps:4 KeyPress:False Matched:True	0	4	false	true	Wrong	true	n/a	n-backMarkers
254.347125	0.000000	4-back	5500.313786	Steps:4 KeyPress:False Matched:False	1	4	false	false	Correct	true	n/a	n-backMarkers
256.048156	0.000000	4-back	5502.014817	Steps:4 KeyPress:False Matched:False	1	4	false	false	Correct	true	n/a	n-backMarkers
257.750514	0.000000	4-back	5503.717175	Steps:4 KeyPress:False Matched:False	1	4	false	false	Correct	true	n/a	n-backMarkers
259.451037	0.000000	4-back	5505.417698	Steps:4 KeyPress:True Matched:True	1	4	true	true	Correct	true	n/a	n-backMarkers
260.380482	0.008000	dropped_samples	5506.347143	Dropped 2 samples	n/a	n/a	n/a	n/a	n/a	n/a	2	UoHDataOffsetStream
261.152306	0.000000	4-back	5507.118966	Steps:4 KeyPress:False Matched:False	1	4	false	false	Correct	true	n/a	n-backMarkers
262.853544	0.000000	4-back	5508.820205	Steps:4 KeyPress:False Matched:True	0	4	false	true	Wrong	true	n/a	n-backMarkers
264.554097	0.000000	4-back	5510.520758	Steps:4 KeyPress:False Matched:False	1	4	false	false	Correct	true	n/a	n-backMarkers
266.255015	0.000000	4-back	5512.221675	Steps:4 KeyPress:True Matched:False	0	4	true	false	Wrong	true	n/a	n-backMarkers
266.933855	0.004000	dropped_samples	5512.900515	Dropped 1 samples	n/a	n/a	n/a	n/a	n/a	n/a	1	UoHDataOffsetStream
267.411756	0.004000	dropped_samples	5513.378417	Dropped 1 samples	n/a	n/a	n/a	n/a	n/a	n/a	1	UoHDataOffsetStream
267.815570	0.004000	dropped_samples	5513.782231	Dropped 1 samples	n/a	n/a	n/a	n/a	n/a	n/a	1	UoHDataOffsetStream
267.882887	0.008000	dropped_samples	5513.849547	Dropped 2 samples	n/a	n/a	n/a	n/a	n/a	n/a	2	UoHDataOffsetStream
267.956338	0.000000	4-back	5513.922999	Steps:4 KeyPress:False Matched:False	1	4	false	false	Correct	true	n/a	n-backMarkers
268.398088	0.004000	dropped_samples	5514.364748	Dropped 1 samples	n/a	n/a	n/a	n/a	n/a	n/a	1	UoHDataOffsetStream
269.657564	0.000000	4-back	5515.624224	Steps:4 KeyPress:False Matched:True	0	4	false	true	Wrong	true	n/a	n-backMarkers
269.931328	0.008000	dropped_samples	5515.897989	Dropped 2 samples	n/a	n/a	n/a	n/a	n/a	n/a	2	UoHDataOffsetStream
270.727583	0.008000	dropped_samples	5516.694244	Dropped 2 samples	n/a	n/a	n/a	n/a	n/a	n/a	2	UoHDataOffsetStream
271.358311	0.000000	4-back	5517.324971	Steps:4 KeyPress:False Matched:True	0	4	false	true	Wrong	true	n/a	n-backMarkers
272.668610	0.008000	dropped_samples	5518.635270	Dropped 2 samples	n/a	n/a	n/a	n/a	n/a	n/a	2	UoHDataOffsetStream
272.814875	0.008000	dropped_samples	5518.781535	Dropped 2 samples	n/a	n/a	n/a	n/a	n/a	n/a	2	UoHDataOffsetStream
273.028386	0.008000	dropped_samples	5518.995047	Dropped 2 samples	n/a	n/a	n/a	n/a	n/a	n/a	2	UoHDataOffsetStream
273.059154	0.000000	4-back	5519.025814	Steps:4 KeyPress:False Matched:False	1	4	false	false	Correct	true	n/a	n-backMarkers
273.887453	0.008000	dropped_samples	5519.854114	Dropped 2 samples	n/a	n/a	n/a	n/a	n/a	n/a	2	UoHDataOffsetStream
274.760793	0.000000	4-back	5520.727454	Steps:4 KeyPress:False Matched:False	1	4	false	false	Correct	true	n/a	n-backMarkers
274.902270	0.004000	dropped_samples	5520.868930	Dropped 1 samples	n/a	n/a	n/a	n/a	n/a	n/a	1	UoHDataOffsetStream
276.462081	0.000000	4-back	5522.428742	Steps:4 KeyPress:False Matched:False	1	4	false	false	Correct	true	n/a	n-backMarkers
277.299564	0.012000	dropped_samples	5523.266224	Dropped 3 samples	n/a	n/a	n/a	n/a	n/a	n/a	3	UoHDataOffsetStream
278.163042	0.000000	4-back	5524.129702	Steps:4 KeyPress:False Matched:True	0	4	false	true	Wrong	true	n/a	n-backMarkers
278.867292	0.000000	finished_tutorial_n_back	5524.833953	Finished tutorial n-back	n/a	n/a	n/a	n/a	n/a	true	n/a	n-backMarkers
280.938627	0.012000	dropped_samples	5526.905288	Dropped 3 samples	n/a	n/a	n/a	n/a	n/a	n/a	3	UoHDataOffsetStream
286.372923	0.004000	dropped_samples	5532.339584	Dropped 1 samples	n/a	n/a	n/a	n/a	n/a	n/a	1	UoHDataOffsetStream
296.069794	0.012000	dropped_samples	5542.036455	Dropped 3 samples	n/a	n/a	n/a	n/a	n/a	n/a	3	UoHDataOffsetStream
296.117887	0.016000	dropped_samples	5542.084548	Dropped 4 samples	n/a	n/a	n/a	n/a	n/a	n/a	4	UoHDataOffsetStream
298.110278	0.008000	dropped_samples	5544.076939	Dropped 2 samples	n/a	n/a	n/a	n/a	n/a	n/a	2	UoHDataOffsetStream
299.202598	0.008000	dropped_samples	5545.169259	Dropped 2 samples	n/a	n/a	n/a	n/a	n/a	n/a	2	UoHDataOffsetStream
299.238009	0.008000	dropped_samples	5545.204670	Dropped 2 samples	n/a	n/a	n/a	n/a	n/a	n/a	2	UoHDataOffsetStream
299.594431	0.004000	dropped_samples	5545.561091	Dropped 1 samples	n/a	n/a	n/a	n/a	n/a	n/a	1	UoHDataOffsetStream
299.956428	0.004000	dropped_samples	5545.923089	Dropped 1 samples	n/a	n/a	n/a	n/a	n/a	n/a	1	UoHDataOffsetStream
306.293696	0.032000	dropped_samples	5552.260357	Dropped 8 samples	n/a	n/a	n/a	n/a	n/a	n/a	8	UoHDataOffsetStream
307.055061	0.012000	dropped_samples	5553.021721	Dropped 3 samples	n/a	n/a	n/a	n/a	n/a	n/a	3	UoHDataOffsetStream
308.642302	0.004000	dropped_samples	5554.608962	Dropped 1 samples	n/a	n/a	n/a	n/a	n/a	n/a	1	UoHDataOffsetStream
308.788806	0.004000	dropped_samples	5554.755467	Dropped 1 samples	n/a	n/a	n/a	n/a	n/a	n/a	1	UoHDataOffsetStream
309.174603	0.004000	dropped_samples	5555.141264	Dropped 1 samples	n/a	n/a	n/a	n/a	n/a	n/a	1	UoHDataOffsetStream
319.219967	0.008000	dropped_samples	5565.186628	Dropped 2 samples	n/a	n/a	n/a	n/a	n/a	n/a	2	UoHDataOffsetStream
319.374812	0.004000	dropped_samples	5565.341473	Dropped 1 samples	n/a	n/a	n/a	n/a	n/a	n/a	1	UoHDataOffsetStream
319.987606	0.012000	dropped_samples	5565.954266	Dropped 3 samples	n/a	n/a	n/a	n/a	n/a	n/a	3	UoHDataOffsetStream
320.019305	0.004000	dropped_samples	5565.985965	Dropped 1 samples	n/a	n/a	n/a	n/a	n/a	n/a	1	UoHDataOffsetStream
320.116936	0.004000	dropped_samples	5566.083597	Dropped 1 samples	n/a	n/a	n/a	n/a	n/a	n/a	1	UoHDataOffsetStream
320.176611	0.000000	started_n_back	5566.143271	Started n-back	n/a	n/a	n/a	n/a	n/a	false	n/a	n-backMarkers
321.342580	0.008000	dropped_samples	5567.309241	Dropped 2 samples	n/a	n/a	n/a	n/a	n/a	n/a	2	UoHDataOffsetStream
328.175860	0.000000	1-back	5574.142520	Steps:1 KeyPress:False Matched:False	1	1	false	false	Correct	false	n/a	n-backMarkers
329.876947	0.000000	1-back	5575.843608	Steps:1 KeyPress:False Matched:False	1	1	false	false	Correct	false	n/a	n-backMarkers
330.918921	0.004000	dropped_samples	5576.885581	Dropped 1 samples	n/a	n/a	n/a	n/a	n/a	n/a	1	UoHDataOffsetStream
331.578371	0.000000	1-back	5577.545031	Steps:1 KeyPress:False Matched:False	1	1	false	false	Correct	false	n/a	n-backMarkers
332.187348	0.012000	dropped_samples	5578.154008	Dropped 3 samples	n/a	n/a	n/a	n/a	n/a	n/a	3	UoHDataOffsetStream
332.695144	0.004000	dropped_samples	5578.661804	Dropped 1 samples	n/a	n/a	n/a	n/a	n/a	n/a	1	UoHDataOffsetStream
333.278731	0.000000	1-back	5579.245391	Steps:1 KeyPress:False Matched:False	1	1	false	false	Correct	false	n/a	n-backMarkers
333.866971	0.004000	dropped_samples	5579.833632	Dropped 1 samples	n/a	n/a	n/a	n/a	n/a	n/a	1	UoHDataOffsetStream
334.979723	0.000000	1-back	5580.946384	Steps:1 KeyPress:False Matched:False	1	1	false	false	Correct	false	n/a	n-backMarkers
336.679817	0.000000	1-back	5582.646477	Steps:1 KeyPress:False Matched:False	1	1	false	false	Correct	false	n/a	n-backMarkers
337.494967	0.004000	dropped_samples	5583.461627	Dropped 1 samples	n/a	n/a	n/a	n/a	n/a	n/a	1	UoHDataOffsetStream
338.381686	0.000000	1-back	5584.348346	Steps:1 KeyPress:False Matched:False	1	1	false	false	Correct	false	n/a	n-backMarkers
340.081913	0.000000	1-back	5586.048574	Steps:1 KeyPress:False Matched:False	1	1	false	false	Correct	false	n/a	n-backMarkers
340.922724	0.004000	dropped_samples	5586.889384	Dropped 1 samples	n/a	n/a	n/a	n/a	n/a	n/a	1	UoHDataOffsetStream
341.783038	0.000000	1-back	5587.749699	Steps:1 KeyPress:True Matched:False	0	1	true	false	Wrong	false	n/a	n-backMarkers
343.483889	0.000000	1-back	5589.450549	Steps:1 KeyPress:False Matched:False	1	1	false	false	Correct	false	n/a	n-backMarkers
345.184359	0.000000	1-back	5591.151020	Steps:1 KeyPress:True Matched:False	0	1	true	false	Wrong	false	n/a	n-backMarkers
346.542798	0.004000	dropped_samples	5592.509458	Dropped 1 samples	n/a	n/a	n/a	n/a	n/a	n/a	1	UoHDataOffsetStream
346.830899	0.004000	dropped_samples	5592.797560	Dropped 1 samples	n/a	n/a	n/a	n/a	n/a	n/a	1	UoHDataOffsetStream
346.884473	0.000000	1-back	5592.851133	Steps:1 KeyPress:False Matched:False	1	1	false	false	Correct	false	n/a	n-backMarkers
348.584896	0.000000	1-back	5594.551556	Steps:1 KeyPress:True Matched:False	0	1	true	false	Wrong	false	n/a	n-backMarkers
350.285647	0.000000	1-back	5596.252307	Steps:1 KeyPress:False Matched:True	0	1	false	true	Wrong	false	n/a	n-backMarkers
351.987036	0.000000	1-back	5597.953696	Steps:1 KeyPress:True Matched:True	1	1	true	true	Correct	false	n/a	n-backMarkers
353.687686	0.000000	1-back	5599.654346	Steps:1 KeyPress:False Matched:False	1	1	false	false	Correct	false	n/a	n-backMarkers
355.387931	0.000000	1-back	5601.354591	Steps:1 KeyPress:True Matched:False	0	1	true	false	Wrong	false	n/a	n-backMarkers
355.544063	0.008000	dropped_samples	5601.510724	Dropped 2 samples	n/a	n/a	n/a	n/a	n/a	n/a	2	UoHDataOffsetStream
356.622570	0.016000	dropped_samples	5602.589230	Dropped 4 samples	n/a	n/a	n/a	n/a	n/a	n/a	4	UoHDataOffsetStream
357.088824	0.000000	1-back	5603.055485	Steps:1 KeyPress:False Matched:False	1	1	false	false	Correct	false	n/a	n-backMarkers
358.790527	0.000000	1-back	5604.757188	Steps:1 KeyPress:True Matched:False	0	1	true	false	Wrong	false	n/a	n-backMarkers
360.491414	0.000000	1-back	5606.458075	Steps:1 KeyPress:False Matched:False	1	1	false	false	Correct	false	n/a	n-backMarkers
362.192888	0.000000	1-back	5608.159548	Steps:1 KeyPress:True Matched:False	0	1	true	false	Wrong	false	n/a	n-backMarkers
363.893401	0.000000	1-back	5609.860062	Steps:1 KeyPress:False Matched:True	0	1	false	true	Wrong	false	n/a	n-backMarkers
365.593511	0.000000	1-back	5611.560172	Steps:1 KeyPress:False Matched:True	0	1	false	true	Wrong	false	n/a	n-backMarkers
367.252730	0.004000	dropped_samples	5613.219390	Dropped 1 samples	n/a	n/a	n/a	n/a	n/a	n/a	1	UoHDataOffsetStream
367.294676	0.000000	1-back	5613.261336	Steps:1 KeyPress:False Matched:False	1	1	false	false	Correct	false	n/a	n-backMarkers
368.995003	0.000000	1-back	5614.961663	Steps:1 KeyPress:False Matched:False	1	1	false	false	Correct	false	n/a	n-backMarkers
370.696329	0.000000	1-back	5616.662990	Steps:1 KeyPress:False Matched:False	1	1	false	false	Correct	false	n/a	n-backMarkers
372.397117	0.000000	1-back	5618.363778	Steps:1 KeyPress:True Matched:False	0	1	true	false	Wrong	false	n/a	n-backMarkers
374.097750	0.000000	1-back	5620.064411	Steps:1 KeyPress:False Matched:True	0	1	false	true	Wrong	false	n/a	n-backMarkers
374.238234	0.012000	dropped_samples	5620.204894	Dropped 3 samples	n/a	n/a	n/a	n/a	n/a	n/a	3	UoHDataOffsetStream
374.863196	0.004000	dropped_samples	5620.829856	Dropped 1 samples	n/a	n/a	n/a	n/a	n/a	n/a	1	UoHDataOffsetStream
375.797923	0.000000	1-back	5621.764584	Steps:1 KeyPress:False Matched:True	0	1	false	true	Wrong	false	n/a	n-backMarkers
377.499773	0.000000	1-back	5623.466433	Steps:1 KeyPress:False Matched:False	1	1	false	false	Correct	false	n/a	n-backMarkers
379.200340	0.000000	1-back	5625.167001	Steps:1 KeyPress:False Matched:False	1	1	false	false	Correct	false	n/a	n-backMarkers
379.977749	0.012000	dropped_samples	5625.944410	Dropped 3 samples	n/a	n/a	n/a	n/a	n/a	n/a	3	UoHDataOffsetStream
380.901748	0.000000	1-back	5626.868408	Steps:1 KeyPress:True Matched:False	0	1	true	false	Wrong	false	n/a	n-backMarkers
381.411173	0.004000	dropped_samples	5627.377834	Dropped 1 samples	n/a	n/a	n/a	n/a	n/a	n/a	1	UoHDataOffsetStream
382.182628	0.004000	dropped_samples	5628.149288	Dropped 1 samples	n/a	n/a	n/a	n/a	n/a	n/a	1	UoHDataOffsetStream
382.602748	0.000000	1-back	5628.569409	Steps:1 KeyPress:False Matched:True	0	1	false	true	Wrong	false	n/a	n-backMarkers
384.303824	0.000000	1-back	5630.270485	Steps:1 KeyPress:False Matched:False	1	1	false	false	Correct	false	n/a	n-backMarkers
386.004875	0.000000	1-back	5631.971535	Steps:1 KeyPress:True Matched:False	0	1	true	false	Wrong	false	n/a	n-backMarkers
387.387652	0.004000	dropped_samples	5633.354313	Dropped 1 samples	n/a	n/a	n/a	n/a	n/a	n/a	1	UoHDataOffsetStream
387.706563	0.000000	1-back	5633.673224	Steps:1 KeyPress:False Matched:False	1	1	false	false	Correct	false	n/a	n-backMarkers
388.110528	0.016000	dropped_samples	5634.077189	Dropped 4 samples	n/a	n/a	n/a	n/a	n/a	n/a	4	UoHDataOffsetStream
389.407516	0.000000	1-back	5635.374177	Steps:1 KeyPress:True Matched:False	0	1	true	false	Wrong	false	n/a	n-backMarkers
390.053664	0.004000	dropped_samples	5636.020324	Dropped 1 samples	n/a	n/a	n/a	n/a	n/a	n/a	1	UoHDataOffsetStream
390.869103	0.004000	dropped_samples	5636.835763	Dropped 1 samples	n/a	n/a	n/a	n/a	n/a	n/a	1	UoHDataOffsetStream
391.108645	0.000000	1-back	5637.075306	Steps:1 KeyPress:False Matched:False	1	1	false	false	Correct	false	n/a	n-backMarkers
392.809055	0.000000	1-back	5638.775716	Steps:1 KeyPress:True Matched:False	0	1	true	false	Wrong	false	n/a	n-backMarkers
394.509633	0.000000	1-back	5640.476293	Steps:1 KeyPress:False Matched:True	0	1	false	true	Wrong	false	n/a	n-backMarkers
396.210388	0.000000	1-back	5642.177048	Steps:1 KeyPress:False Matched:True	0	1	false	true	Wrong	false	n/a	n-backMarkers
397.911646	0.000000	1-back	5643.878306	Steps:1 KeyPress:False Matched:False	1	1	false	false	Correct	false	n/a	n-backMarkers
398.914453	0.004000	dropped_samples	5644.881113	Dropped 1 samples	n/a	n/a	n/a	n/a	n/a	n/a	1	UoHDataOffsetStream
399.612388	0.000000	1-back	5645.579048	Steps:1 KeyPress:False Matched:False	1	1	false	false	Correct	false	n/a	n-backMarkers
401.313491	0.000000	1-back	5647.280151	Steps:1 KeyPress:True Matched:False	0	1	true	false	Wrong	false	n/a	n-backMarkers
402.607617	0.004000	dropped_samples	5648.574278	Dropped 1 samples	n/a	n/a	n/a	n/a	n/a	n/a	1	UoHDataOffsetStream
403.014463	0.000000	1-back	5648.981124	Steps:1 KeyPress:False Matched:False	1	1	false	false	Correct	false	n/a	n-backMarkers
404.715098	0.000000	1-back	5650.681758	Steps:1 KeyPress:True Matched:False	0	1	true	false	Wrong	false	n/a	n-backMarkers
406.415358	0.000000	1-back	5652.382019	Steps:1 KeyPress:False Matched:True	0	1	false	true	Wrong	false	n/a	n-backMarkers
408.115846	0.000000	1-back	5654.082507	Steps:1 KeyPress:False Matched:True	0	1	false	true	Wrong	false	n/a	n-backMarkers
409.817521	0.000000	1-back	5655.784182	Steps:1 KeyPress:False Matched:False	1	1	false	false	Correct	false	n/a	n-backMarkers
411.391627	0.004000	dropped_samples	5657.358287	Dropped 1 samples	n/a	n/a	n/a	n/a	n/a	n/a	1	UoHDataOffsetStream
411.518327	0.000000	1-back	5657.484988	Steps:1 KeyPress:True Matched:False	0	1	true	false	Wrong	false	n/a	n-backMarkers
413.219118	0.000000	1-back	5659.185779	Steps:1 KeyPress:False Matched:False	1	1	false	false	Correct	false	n/a	n-backMarkers
414.920669	0.000000	1-back	5660.887330	Steps:1 KeyPress:True Matched:False	0	1	true	false	Wrong	false	n/a	n-backMarkers
416.622643	0.000000	1-back	5662.589304	Steps:1 KeyPress:False Matched:False	1	1	false	false	Correct	false	n/a	n-backMarkers
418.323813	0.000000	1-back	5664.290474	Steps:1 KeyPress:True Matched:False	0	1	true	false	Wrong	false	n/a	n-backMarkers
420.024710	0.000000	1-back	5665.991371	Steps:1 KeyPress:False Matched:True	0	1	false	true	Wrong	false	n/a	n-backMarkers
421.567422	0.008000	dropped_samples	5667.534083	Dropped 2 samples	n/a	n/a	n/a	n/a	n/a	n/a	2	UoHDataOffsetStream
421.725152	0.000000	1-back	5667.691812	Steps:1 KeyPress:False Matched:False	1	1	false	false	Correct	false	n/a	n-backMarkers
421.879928	0.004000	dropped_samples	5667.846588	Dropped 1 samples	n/a	n/a	n/a	n/a	n/a	n/a	1	UoHDataOffsetStream
423.426560	0.000000	1-back	5669.393221	Steps:1 KeyPress:True Matched:False	0	1	true	false	Wrong	false	n/a	n-backMarkers
424.853625	0.004000	dropped_samples	5670.820285	Dropped 1 samples	n/a	n/a	n/a	n/a	n/a	n/a	1	UoHDataOffsetStream
425.126830	0.000000	1-back	5671.093491	Steps:1 KeyPress:False Matched:True	0	1	false	true	Wrong	false	n/a	n-backMarkers
426.828507	0.000000	1-back	5672.795167	Steps:1 KeyPress:False Matched:False	1	1	false	false	Correct	false	n/a	n-backMarkers
427.011780	0.008000	dropped_samples	5672.978441	Dropped 2 samples	n/a	n/a	n/a	n/a	n/a	n/a	2	UoHDataOffsetStream
428.528961	0.000000	1-back	5674.495621	Steps:1 KeyPress:True Matched:False	0	1	true	false	Wrong	false	n/a	n-backMarkers
429.511791	0.004000	dropped_samples	5675.478451	Dropped 1 samples	n/a	n/a	n/a	n/a	n/a	n/a	1	UoHDataOffsetStream
430.230208	0.000000	1-back	5676.196869	Steps:1 KeyPress:False Matched:False	1	1	false	false	Correct	false	n/a	n-backMarkers
431.930842	0.000000	1-back	5677.897502	Steps:1 KeyPress:True Matched:False	0	1	true	false	Wrong	false	n/a	n-backMarkers
433.631742	0.000000	1-back	5679.598403	Steps:1 KeyPress:False Matched:True	0	1	false	true	Wrong	false	n/a	n-backMarkers
435.333768	0.000000	1-back	5681.300429	Steps:1 KeyPress:False Matched:True	0	1	false	true	Wrong	false	n/a	n-backMarkers
437.034946	0.000000	1-back	5683.001607	Steps:1 KeyPress:False Matched:True	0	1	false	true	Wrong	false	n/a	n-backMarkers
437.670962	0.004000	dropped_samples	5683.637622	Dropped 1 samples	n/a	n/a	n/a	n/a	n/a	n/a	1	UoHDataOffsetStream
438.584126	0.004000	dropped_samples	5684.550787	Dropped 1 samples	n/a	n/a	n/a	n/a	n/a	n/a	1	UoHDataOffsetStream
438.736990	0.000000	1-back	5684.703651	Steps:1 KeyPress:False Matched:False	1	1	false	false	Correct	false	n/a	n-backMarkers
440.437574	0.000000	1-back	5686.404234	Steps:1 KeyPress:True Matched:False	0	1	true	false	Wrong	false	n/a	n-backMarkers
441.723728	0.004000	dropped_samples	5687.690389	Dropped 1 samples	n/a	n/a	n/a	n/a	n/a	n/a	1	UoHDataOffsetStream
442.138815	0.000000	1-back	5688.105476	Steps:1 KeyPress:False Matched:True	0	1	false	true	Wrong	false	n/a	n-backMarkers
443.839989	0.000000	1-back	5689.806649	Steps:1 KeyPress:False Matched:False	1	1	false	false	Correct	false	n/a	n-backMarkers
445.420010	0.004000	dropped_samples	5691.386670	Dropped 1 samples	n/a	n/a	n/a	n/a	n/a	n/a	1	UoHDataOffsetStream
445.540946	0.000000	1-back	5691.507607	Steps:1 KeyPress:True Matched:False	0	1	true	false	Wrong	false	n/a	n-backMarkers
446.694449	0.004000	dropped_samples	5692.661109	Dropped 1 samples	n/a	n/a	n/a	n/a	n/a	n/a	1	UoHDataOffsetStream
447.241176	0.000000	1-back	5693.207836	Steps:1 KeyPress:False Matched:False	1	1	false	false	Correct	false	n/a	n-backMarkers
448.086076	0.004000	dropped_samples	5694.052737	Dropped 1 samples	n/a	n/a	n/a	n/a	n/a	n/a	1	UoHDataOffsetStream
448.941376	0.000000	1-back	5694.908036	Steps:1 KeyPress:True Matched:False	0	1	true	false	Wrong	false	n/a	n-backMarkers
450.642114	0.000000	1-back	5696.608774	Steps:1 KeyPress:False Matched:False	1	1	false	false	Correct	false	n/a	n-backMarkers
451.230562	0.004000	dropped_samples	5697.197222	Dropped 1 samples	n/a	n/a	n/a	n/a	n/a	n/a	1	UoHDataOffsetStream
452.342681	0.000000	1-back	5698.309342	Steps:1 KeyPress:True Matched:False	0	1	true	false	Wrong	false	n/a	n-backMarkers
454.043199	0.000000	1-back	5700.009859	Steps:1 KeyPress:False Matched:True	0	1	false	true	Wrong	false	n/a	n-backMarkers
455.744029	0.000000	1-back	5701.710690	Steps:1 KeyPress:False Matched:False	1	1	false	false	Correct	false	n/a	n-backMarkers
457.445080	0.000000	1-back	5703.411741	Steps:1 KeyPress:True Matched:False	0	1	true	false	Wrong	false	n/a	n-backMarkers
457.544110	0.004000	dropped_samples	5703.510770	Dropped 1 samples	n/a	n/a	n/a	n/a	n/a	n/a	1	UoHDataOffsetStream
459.145801	0.000000	1-back	5705.112462	Steps:1 KeyPress:False Matched:False	1	1	false	false	Correct	false	n/a	n-backMarkers
460.846903	0.000000	1-back	5706.813563	Steps:1 KeyPress:True Matched:False	0	1	true	false	Wrong	false	n/a	n-backMarkers
462.547561	0.000000	1-back	5708.514221	Steps:1 KeyPress:False Matched:True	0	1	false	true	Wrong	false	n/a	n-backMarkers
464.248498	0.000000	1-back	5710.215159	Steps:1 KeyPress:False Matched:False	1	1	false	false	Correct	false	n/a	n-backMarkers
465.948952	0.000000	1-back	5711.915613	Steps:1 KeyPress:True Matched:False	0	1	true	false	Wrong	false	n/a	n-backMarkers
467.650517	0.000000	1-back	5713.617178	Steps:1 KeyPress:False Matched:False	1	1	false	false	Correct	false	n/a	n-backMarkers
469.351823	0.000000	1-back	5715.318483	Steps:1 KeyPress:True Matched:False	0	1	true	false	Wrong	false	n/a	n-backMarkers
471.052974	0.000000	1-back	5717.019635	Steps:1 KeyPress:False Matched:False	1	1	false	false	Correct	false	n/a	n-backMarkers
472.753006	0.000000	1-back	5718.719666	Steps:1 KeyPress:True Matched:False	0	1	true	false	Wrong	false	n/a	n-backMarkers
474.028497	0.004000	dropped_samples	5719.995157	Dropped 1 samples	n/a	n/a	n/a	n/a	n/a	n/a	1	UoHDataOffsetStream
474.453301	0.000000	1-back	5720.419961	Steps:1 KeyPress:False Matched:True	0	1	false	true	Wrong	false	n/a	n-backMarkers
476.153844	0.000000	1-back	5722.120505	Steps:1 KeyPress:False Matched:True	0	1	false	true	Wrong	false	n/a	n-backMarkers
476.308791	0.004000	dropped_samples	5722.275451	Dropped 1 samples	n/a	n/a	n/a	n/a	n/a	n/a	1	UoHDataOffsetStream
477.854386	0.000000	1-back	5723.821047	Steps:1 KeyPress:False Matched:False	1	1	false	false	Correct	false	n/a	n-backMarkers
479.555500	0.000000	1-back	5725.522161	Steps:1 KeyPress:True Matched:False	0	1	true	false	Wrong	false	n/a	n-backMarkers
481.256699	0.000000	1-back	5727.223360	Steps:1 KeyPress:False Matched:False	1	1	false	false	Correct	false	n/a	n-backMarkers
482.957668	0.000000	1-back	5728.924328	Steps:1 KeyPress:True Matched:False	0	1	true	false	Wrong	false	n/a	n-backMarkers
484.658576	0.000000	1-back	5730.625236	Steps:1 KeyPress:False Matched:False	1	1	false	false	Correct	false	n/a	n-backMarkers
486.359680	0.000000	1-back	5732.326341	Steps:1 KeyPress:True Matched:False	0	1	true	false	Wrong	false	n/a	n-backMarkers
488.059914	0.000000	1-back	5734.026574	Steps:1 KeyPress:False Matched:False	1	1	false	false	Correct	false	n/a	n-backMarkers
488.237490	0.004000	dropped_samples	5734.204151	Dropped 1 samples	n/a	n/a	n/a	n/a	n/a	n/a	1	UoHDataOffsetStream
488.623279	0.004000	dropped_samples	5734.589940	Dropped 1 samples	n/a	n/a	n/a	n/a	n/a	n/a	1	UoHDataOffsetStream
489.761687	0.000000	1-back	5735.728348	Steps:1 KeyPress:True Matched:False	0	1	true	false	Wrong	false	n/a	n-backMarkers
490.112527	0.004000	dropped_samples	5736.079188	Dropped 1 samples	n/a	n/a	n/a	n/a	n/a	n/a	1	UoHDataOffsetStream
491.462759	0.000000	1-back	5737.429420	Steps:1 KeyPress:False Matched:False	1	1	false	false	Correct	false	n/a	n-backMarkers
493.163680	0.000000	1-back	5739.130340	Steps:1 KeyPress:True Matched:False	0	1	true	false	Wrong	false	n/a	n-backMarkers
494.864804	0.000000	1-back	5740.831465	Steps:1 KeyPress:False Matched:True	0	1	false	true	Wrong	false	n/a	n-backMarkers
496.565662	0.000000	1-back	5742.532323	Steps:1 KeyPress:False Matched:True	0	1	false	true	Wrong	false	n/a	n-backMarkers
499.375215	0.004000	dropped_samples	5745.341876	Dropped 1 samples	n/a	n/a	n/a	n/a	n/a	n/a	1	UoHDataOffsetStream
503.120449	0.004000	dropped_samples	5749.087110	Dropped 1 samples	n/a	n/a	n/a	n/a	n/a	n/a	1	UoHDataOffsetStream
505.278520	0.000000	2-back	5751.245180	Steps:2 KeyPress:False Matched:False	1	2	false	false	Correct	false	n/a	n-backMarkers
506.979281	0.000000	2-back	5752.945941	Steps:2 KeyPress:False Matched:False	1	2	false	false	Correct	false	n/a	n-backMarkers
508.679506	0.000000	2-back	5754.646167	Steps:2 KeyPress:False Matched:False	1	2	false	false	Correct	false	n/a	n-backMarkers
508.974829	0.004000	dropped_samples	5754.941489	Dropped 1 samples	n/a	n/a	n/a	n/a	n/a	n/a	1	UoHDataOffsetStream
510.380947	0.000000	2-back	5756.347607	Steps:2 KeyPress:False Matched:False	1	2	false	false	Correct	false	n/a	n-backMarkers
512.081237	0.000000	2-back	5758.047898	Steps:2 KeyPress:False Matched:False	1	2	false	false	Correct	false	n/a	n-backMarkers
512.095010	0.012000	dropped_samples	5758.061671	Dropped 3 samples	n/a	n/a	n/a	n/a	n/a	n/a	3	UoHDataOffsetStream
513.781315	0.000000	2-back	5759.747975	Steps:2 KeyPress:True Matched:False	0	2	true	false	Wrong	false	n/a	n-backMarkers
515.481332	0.000000	2-back	5761.447993	Steps:2 KeyPress:False Matched:False	1	2	false	false	Correct	false	n/a	n-backMarkers
516.870388	0.004000	dropped_samples	5762.837049	Dropped 1 samples	n/a	n/a	n/a	n/a	n/a	n/a	1	UoHDataOffsetStream
517.181760	0.000000	2-back	5763.148421	Steps:2 KeyPress:False Matched:False	1	2	false	false	Correct	false	n/a	n-backMarkers
518.433445	0.004000	dropped_samples	5764.400105	Dropped 1 samples	n/a	n/a	n/a	n/a	n/a	n/a	1	UoHDataOffsetStream
518.883108	0.000000	2-back	5764.849768	Steps:2 KeyPress:True Matched:False	0	2	true	false	Wrong	false	n/a	n-backMarkers
520.583795	0.000000	2-back	5766.550455	Steps:2 KeyPress:False Matched:False	1	2	false	false	Correct	false	n/a	n-backMarkers
522.285055	0.000000	2-back	5768.251715	Steps:2 KeyPress:False Matched:False	1	2	false	false	Correct	false	n/a	n-backMarkers
523.811889	0.012000	dropped_samples	5769.778550	Dropped 3 samples	n/a	n/a	n/a	n/a	n/a	n/a	3	UoHDataOffsetStream
523.985655	0.000000	2-back	5769.952316	Steps:2 KeyPress:True Matched:False	0	2	true	false	Wrong	false	n/a	n-backMarkers
525.416150	0.004000	dropped_samples	5771.382811	Dropped 1 samples	n/a	n/a	n/a	n/a	n/a	n/a	1	UoHDataOffsetStream
525.685903	0.000000	2-back	5771.652563	Steps:2 KeyPress:False Matched:True	0	2	false	true	Wrong	false	n/a	n-backMarkers
526.706345	0.008000	dropped_samples	5772.673006	Dropped 2 samples	n/a	n/a	n/a	n/a	n/a	n/a	2	UoHDataOffsetStream
527.387534	0.000000	2-back	5773.354194	Steps:2 KeyPress:False Matched:False	1	2	false	false	Correct	false	n/a	n-backMarkers
527.983699	0.008000	dropped_samples	5773.950359	Dropped 2 samples	n/a	n/a	n/a	n/a	n/a	n/a	2	UoHDataOffsetStream
529.088659	0.000000	2-back	5775.055320	Steps:2 KeyPress:True Matched:False	0	2	true	false	Wrong	false	n/a	n-backMarkers
529.289649	0.008000	dropped_samples	5775.256310	Dropped 2 samples	n/a	n/a	n/a	n/a	n/a	n/a	2	UoHDataOffsetStream
529.327342	0.020000	dropped_samples	5775.294003	Dropped 5 samples	n/a	n/a	n/a	n/a	n/a	n/a	5	UoHDataOffsetStream
530.789514	0.000000	2-back	5776.756175	Steps:2 KeyPress:False Matched:True	0	2	false	true	Wrong	false	n/a	n-backMarkers
532.490548	0.000000	2-back	5778.457209	Steps:2 KeyPress:False Matched:False	1	2	false	false	Correct	false	n/a	n-backMarkers
533.129452	0.032000	dropped_samples	5779.096112	Dropped 8 samples	n/a	n/a	n/a	n/a	n/a	n/a	8	UoHDataOffsetStream
534.192709	0.000000	2-back	5780.159370	Steps:2 KeyPress:False Matched:True	0	2	false	true	Wrong	false	n/a	n-backMarkers
535.615602	0.004000	dropped_samples	5781.582263	Dropped 1 samples	n/a	n/a	n/a	n/a	n/a	n/a	1	UoHDataOffsetStream
535.893645	0.000000	2-back	5781.860305	Steps:2 KeyPress:False Matched:False	1	2	false	false	Correct	false	n/a	n-backMarkers
536.567238	0.004000	dropped_samples	5782.533898	Dropped 1 samples	n/a	n/a	n/a	n/a	n/a	n/a	1	UoHDataOffsetStream
537.222185	0.004000	dropped_samples	5783.188846	Dropped 1 samples	n/a	n/a	n/a	n/a	n/a	n/a	1	UoHDataOffsetStream
537.594661	0.000000	2-back	5783.561322	Steps:2 KeyPress:True Matched:False	0	2	true	false	Wrong	false	n/a	n-backMarkers
537.620347	0.008000	dropped_samples	5783.587007	Dropped 2 samples	n/a	n/a	n/a	n/a	n/a	n/a	2	UoHDataOffsetStream
537.651841	0.004000	dropped_samples	5783.618502	Dropped 1 samples	n/a	n/a	n/a	n/a	n/a	n/a	1	UoHDataOffsetStream
538.877345	0.088000	dropped_samples	5784.844006	Dropped 22 samples	n/a	n/a	n/a	n/a	n/a	n/a	22	UoHDataOffsetStream
539.294863	0.000000	2-back	5785.261523	Steps:2 KeyPress:False Matched:False	1	2	false	false	Correct	false	n/a	n-backMarkers
539.746460	0.004000	dropped_samples	5785.713120	Dropped 1 samples	n/a	n/a	n/a	n/a	n/a	n/a	1	UoHDataOffsetStream
540.630233	0.032000	dropped_samples	5786.596894	Dropped 8 samples	n/a	n/a	n/a	n/a	n/a	n/a	8	UoHDataOffsetStream
540.995671	0.000000	2-back	5786.962332	Steps:2 KeyPress:False Matched:True	0	2	false	true	Wrong	false	n/a	n-backMarkers
541.569642	0.012000	dropped_samples	5787.536302	Dropped 3 samples	n/a	n/a	n/a	n/a	n/a	n/a	3	UoHDataOffsetStream
542.697627	0.000000	2-back	5788.664288	Steps:2 KeyPress:False Matched:False	1	2	false	false	Correct	false	n/a	n-backMarkers
542.972257	0.008000	dropped_samples	5788.938917	Dropped 2 samples	n/a	n/a	n/a	n/a	n/a	n/a	2	UoHDataOffsetStream
543.008183	0.028000	dropped_samples	5788.974844	Dropped 7 samples	n/a	n/a	n/a	n/a	n/a	n/a	7	UoHDataOffsetStream
543.836247	0.004000	dropped_samples	5789.802908	Dropped 1 samples	n/a	n/a	n/a	n/a	n/a	n/a	1	UoHDataOffsetStream
543.921484	0.008000	dropped_samples	5789.888144	Dropped 2 samples	n/a	n/a	n/a	n/a	n/a	n/a	2	UoHDataOffsetStream
544.289175	0.004000	dropped_samples	5790.255835	Dropped 1 samples	n/a	n/a	n/a	n/a	n/a	n/a	1	UoHDataOffsetStream
544.398464	0.000000	2-back	5790.365124	Steps:2 KeyPress:False Matched:False	1	2	false	false	Correct	false	n/a	n-backMarkers
544.981258	0.016000	dropped_samples	5790.947918	Dropped 4 samples	n/a	n/a	n/a	n/a	n/a	n/a	4	UoHDataOffsetStream
545.024729	0.020000	dropped_samples	5790.991389	Dropped 5 samples	n/a	n/a	n/a	n/a	n/a	n/a	5	UoHDataOffsetStream
546.099058	0.000000	2-back	5792.065719	Steps:2 KeyPress:True Matched:False	0	2	true	false	Wrong	false	n/a	n-backMarkers
547.353902	0.004000	dropped_samples	5793.320563	Dropped 1 samples	n/a	n/a	n/a	n/a	n/a	n/a	1	UoHDataOffsetStream
547.799672	0.000000	2-back	5793.766332	Steps:2 KeyPress:False Matched:True	0	2	false	true	Wrong	false	n/a	n-backMarkers
549.500521	0.000000	2-back	5795.467181	Steps:2 KeyPress:False Matched:False	1	2	false	false	Correct	false	n/a	n-backMarkers
551.200825	0.000000	2-back	5797.167486	Steps:2 KeyPress:False Matched:False	1	2	false	false	Correct	false	n/a	n-backMarkers
552.901663	0.000000	2-back	5798.868323	Steps:2 KeyPress:True Matched:False	0	2	true	false	Wrong	false	n/a	n-backMarkers
554.603677	0.000000	2-back	5800.570337	Steps:2 KeyPress:False Matched:False	1	2	false	false	Correct	false	n/a	n-backMarkers
556.182041	0.012000	dropped_samples	5802.148702	Dropped 3 samples	n/a	n/a	n/a	n/a	n/a	n/a	3	UoHDataOffsetStream
556.304654	0.000000	2-back	5802.271315	Steps:2 KeyPress:False Matched:False	1	2	false	false	Correct	false	n/a	n-backMarkers
556.518913	0.004000	dropped_samples	5802.485574	Dropped 1 samples	n/a	n/a	n/a	n/a	n/a	n/a	1	UoHDataOffsetStream
558.004880	0.000000	2-back	5803.971541	Steps:2 KeyPress:True Matched:False	0	2	true	false	Wrong	false	n/a	n-backMarkers
559.705669	0.000000	2-back	5805.672330	Steps:2 KeyPress:False Matched:True	0	2	false	true	Wrong	false	n/a	n-backMarkers
560.437395	0.008000	dropped_samples	5806.404056	Dropped 2 samples	n/a	n/a	n/a	n/a	n/a	n/a	2	UoHDataOffsetStream
560.464816	0.040000	dropped_samples	5806.431476	Dropped 10 samples	n/a	n/a	n/a	n/a	n/a	n/a	10	UoHDataOffsetStream
560.504816	0.020000	dropped_samples	5806.471476	Dropped 5 samples	n/a	n/a	n/a	n/a	n/a	n/a	5	UoHDataOffsetStream
561.407498	0.000000	2-back	5807.374159	Steps:2 KeyPress:False Matched:False	1	2	false	false	Correct	false	n/a	n-backMarkers
562.685987	0.004000	dropped_samples	5808.652648	Dropped 1 samples	n/a	n/a	n/a	n/a	n/a	n/a	1	UoHDataOffsetStream
563.108725	0.000000	2-back	5809.075385	Steps:2 KeyPress:False Matched:False	1	2	false	false	Correct	false	n/a	n-backMarkers
564.809580	0.000000	2-back	5810.776241	Steps:2 KeyPress:True Matched:True	1	2	true	true	Correct	false	n/a	n-backMarkers
566.510507	0.000000	2-back	5812.477168	Steps:2 KeyPress:False Matched:False	1	2	false	false	Correct	false	n/a	n-backMarkers
568.212390	0.000000	2-back	5814.179050	Steps:2 KeyPress:False Matched:False	1	2	false	false	Correct	false	n/a	n-backMarkers
569.912745	0.000000	2-back	5815.879406	Steps:2 KeyPress:True Matched:False	0	2	true	false	Wrong	false	n/a	n-backMarkers
570.054099	0.004000	dropped_samples	5816.020760	Dropped 1 samples	n/a	n/a	n/a	n/a	n/a	n/a	1	UoHDataOffsetStream
571.614071	0.000000	2-back	5817.580732	Steps:2 KeyPress:False Matched:True	0	2	false	true	Wrong	false	n/a	n-backMarkers
573.314531	0.000000	2-back	5819.281191	Steps:2 KeyPress:False Matched:False	1	2	false	false	Correct	false	n/a	n-backMarkers
575.015403	0.000000	2-back	5820.982063	Steps:2 KeyPress:False Matched:True	0	2	false	true	Wrong	false	n/a	n-backMarkers
576.716534	0.000000	2-back	5822.683194	Steps:2 KeyPress:False Matched:False	1	2	false	false	Correct	false	n/a	n-backMarkers
578.418367	0.000000	2-back	5824.385028	Steps:2 KeyPress:False Matched:False	1	2	false	false	Correct	false	n/a	n-backMarkers
580.119527	0.000000	2-back	5826.086188	Steps:2 KeyPress:False Matched:False	1	2	false	false	Correct	false	n/a	n-backMarkers
581.819597	0.000000	2-back	5827.786258	Steps:2 KeyPress:True Matched:False	0	2	true	false	Wrong	false	n/a	n-backMarkers
582.749516	0.004000	dropped_samples	5828.716176	Dropped 1 samples	n/a	n/a	n/a	n/a	n/a	n/a	1	UoHDataOffsetStream
583.520796	0.000000	2-back	5829.487457	Steps:2 KeyPress:False Matched:False	1	2	false	false	Correct	false	n/a	n-backMarkers
584.600064	0.004000	dropped_samples	5830.566724	Dropped 1 samples	n/a	n/a	n/a	n/a	n/a	n/a	1	UoHDataOffsetStream
585.222485	0.000000	2-back	5831.189146	Steps:2 KeyPress:False Matched:False	1	2	false	false	Correct	false	n/a	n-backMarkers
586.923590	0.000000	2-back	5832.890251	Steps:2 KeyPress:True Matched:False	0	2	true	false	Wrong	false	n/a	n-backMarkers
587.598089	0.004000	dropped_samples	5833.564750	Dropped 1 samples	n/a	n/a	n/a	n/a	n/a	n/a	1	UoHDataOffsetStream
588.296388	0.012000	dropped_samples	5834.263048	Dropped 3 samples	n/a	n/a	n/a	n/a	n/a	n/a	3	UoHDataOffsetStream
588.624684	0.000000	2-back	5834.591345	Steps:2 KeyPress:False Matched:True	0	2	false	true	Wrong	false	n/a	n-backMarkers
588.703921	0.012000	dropped_samples	5834.670582	Dropped 3 samples	n/a	n/a	n/a	n/a	n/a	n/a	3	UoHDataOffsetStream
590.326439	0.000000	2-back	5836.293099	Steps:2 KeyPress:False Matched:False	1	2	false	false	Correct	false	n/a	n-backMarkers
591.152808	0.004000	dropped_samples	5837.119468	Dropped 1 samples	n/a	n/a	n/a	n/a	n/a	n/a	1	UoHDataOffsetStream
592.027550	0.000000	2-back	5837.994211	Steps:2 KeyPress:False Matched:True	0	2	false	true	Wrong	false	n/a	n-backMarkers
593.727638	0.000000	2-back	5839.694298	Steps:2 KeyPress:False Matched:False	1	2	false	false	Correct	false	n/a	n-backMarkers
594.248530	0.004000	dropped_samples	5840.215191	Dropped 1 samples	n/a	n/a	n/a	n/a	n/a	n/a	1	UoHDataOffsetStream
595.429329	0.000000	2-back	5841.395990	Steps:2 KeyPress:False Matched:False	1	2	false	false	Correct	false	n/a	n-backMarkers
596.480073	0.004000	dropped_samples	5842.446734	Dropped 1 samples	n/a	n/a	n/a	n/a	n/a	n/a	1	UoHDataOffsetStream
597.130594	0.000000	2-back	5843.097254	Steps:2 KeyPress:False Matched:False	1	2	false	false	Correct	false	n/a	n-backMarkers
598.832445	0.000000	2-back	5844.799106	Steps:2 KeyPress:False Matched:False	1	2	false	false	Correct	false	n/a	n-backMarkers
600.317925	0.012000	dropped_samples	5846.284585	Dropped 3 samples	n/a	n/a	n/a	n/a	n/a	n/a	3	UoHDataOffsetStream
600.533050	0.000000	2-back	5846.499710	Steps:2 KeyPress:True Matched:False	0	2	true	false	Wrong	false	n/a	n-backMarkers
600.630370	0.008000	dropped_samples	5846.597030	Dropped 2 samples	n/a	n/a	n/a	n/a	n/a	n/a	2	UoHDataOffsetStream
602.233513	0.000000	2-back	5848.200174	Steps:2 KeyPress:False Matched:False	1	2	false	false	Correct	false	n/a	n-backMarkers
603.934425	0.000000	2-back	5849.901086	Steps:2 KeyPress:False Matched:True	0	2	false	true	Wrong	false	n/a	n-backMarkers
605.635623	0.000000	2-back	5851.602284	Steps:2 KeyPress:True Matched:False	0	2	true	false	Wrong	false	n/a	n-backMarkers
605.816051	0.004000	dropped_samples	5851.782712	Dropped 1 samples	n/a	n/a	n/a	n/a	n/a	n/a	1	UoHDataOffsetStream
606.870634	0.004000	dropped_samples	5852.837295	Dropped 1 samples	n/a	n/a	n/a	n/a	n/a	n/a	1	UoHDataOffsetStream
607.336078	0.000000	2-back	5853.302739	Steps:2 KeyPress:False Matched:False	1	2	false	false	Correct	false	n/a	n-backMarkers
607.520078	0.004000	dropped_samples	5853.486739	Dropped 1 samples	n/a	n/a	n/a	n/a	n/a	n/a	1	UoHDataOffsetStream
607.815905	0.008000	dropped_samples	5853.782566	Dropped 2 samples	n/a	n/a	n/a	n/a	n/a	n/a	2	UoHDataOffsetStream
607.856958	0.012000	dropped_samples	5853.823619	Dropped 3 samples	n/a	n/a	n/a	n/a	n/a	n/a	3	UoHDataOffsetStream
609.036643	0.000000	2-back	5855.003303	Steps:2 KeyPress:False Matched:False	1	2	false	false	Correct	false	n/a	n-backMarkers
609.775936	0.012000	dropped_samples	5855.742596	Dropped 3 samples	n/a	n/a	n/a	n/a	n/a	n/a	3	UoHDataOffsetStream
610.615772	0.012000	dropped_samples	5856.582432	Dropped 3 samples	n/a	n/a	n/a	n/a	n/a	n/a	3	UoHDataOffsetStream
610.737629	0.000000	2-back	5856.704290	Steps:2 KeyPress:True Matched:False	0	2	true	false	Wrong	false	n/a	n-backMarkers
610.762262	0.008000	dropped_samples	5856.728922	Dropped 2 samples	n/a	n/a	n/a	n/a	n/a	n/a	2	UoHDataOffsetStream
611.743731	0.012000	dropped_samples	5857.710392	Dropped 3 samples	n/a	n/a	n/a	n/a	n/a	n/a	3	UoHDataOffsetStream
611.934140	0.004000	dropped_samples	5857.900801	Dropped 1 samples	n/a	n/a	n/a	n/a	n/a	n/a	1	UoHDataOffsetStream
612.437488	0.000000	2-back	5858.404148	Steps:2 KeyPress:False Matched:True	0	2	false	true	Wrong	false	n/a	n-backMarkers
613.062153	0.056000	dropped_samples	5859.028814	Dropped 14 samples	n/a	n/a	n/a	n/a	n/a	n/a	14	UoHDataOffsetStream
613.460549	0.008000	dropped_samples	5859.427209	Dropped 2 samples	n/a	n/a	n/a	n/a	n/a	n/a	2	UoHDataOffsetStream
614.138693	0.000000	2-back	5860.105354	Steps:2 KeyPress:False Matched:False	1	2	false	false	Correct	false	n/a	n-backMarkers
614.786843	0.004000	dropped_samples	5860.753503	Dropped 1 samples	n/a	n/a	n/a	n/a	n/a	n/a	1	UoHDataOffsetStream
615.103191	0.016000	dropped_samples	5861.069851	Dropped 4 samples	n/a	n/a	n/a	n/a	n/a	n/a	4	UoHDataOffsetStream
615.249558	0.008000	dropped_samples	5861.216218	Dropped 2 samples	n/a	n/a	n/a	n/a	n/a	n/a	2	UoHDataOffsetStream
615.840562	0.000000	2-back	5861.807223	Steps:2 KeyPress:False Matched:True	0	2	false	true	Wrong	false	n/a	n-backMarkers
616.030412	0.032000	dropped_samples	5861.997073	Dropped 8 samples	n/a	n/a	n/a	n/a	n/a	n/a	8	UoHDataOffsetStream
616.070107	0.004000	dropped_samples	5862.036768	Dropped 1 samples	n/a	n/a	n/a	n/a	n/a	n/a	1	UoHDataOffsetStream
616.847309	0.016000	dropped_samples	5862.813970	Dropped 4 samples	n/a	n/a	n/a	n/a	n/a	n/a	4	UoHDataOffsetStream
617.542398	0.000000	2-back	5863.509059	Steps:2 KeyPress:False Matched:False	1	2	false	false	Correct	false	n/a	n-backMarkers
617.748903	0.004000	dropped_samples	5863.715564	Dropped 1 samples	n/a	n/a	n/a	n/a	n/a	n/a	1	UoHDataOffsetStream
618.933672	0.008000	dropped_samples	5864.900333	Dropped 2 samples	n/a	n/a	n/a	n/a	n/a	n/a	2	UoHDataOffsetStream
619.242520	0.000000	2-back	5865.209181	Steps:2 KeyPress:False Matched:False	1	2	false	false	Correct	false	n/a	n-backMarkers
620.215431	0.008000	dropped_samples	5866.182092	Dropped 2 samples	n/a	n/a	n/a	n/a	n/a	n/a	2	UoHDataOffsetStream
620.943086	0.000000	2-back	5866.909747	Steps:2 KeyPress:True Matched:False	0	2	true	false	Wrong	false	n/a	n-backMarkers
621.029242	0.024000	dropped_samples	5866.995903	Dropped 6 samples	n/a	n/a	n/a	n/a	n/a	n/a	6	UoHDataOffsetStream
622.643446	0.000000	2-back	5868.610106	Steps:2 KeyPress:False Matched:True	0	2	false	true	Wrong	false	n/a	n-backMarkers
623.096310	0.004000	dropped_samples	5869.062971	Dropped 1 samples	n/a	n/a	n/a	n/a	n/a	n/a	1	UoHDataOffsetStream
624.107314	0.008000	dropped_samples	5870.073974	Dropped 2 samples	n/a	n/a	n/a	n/a	n/a	n/a	2	UoHDataOffsetStream
624.169850	0.032000	dropped_samples	5870.136511	Dropped 8 samples	n/a	n/a	n/a	n/a	n/a	n/a	8	UoHDataOffsetStream
624.344295	0.000000	2-back	5870.310955	Steps:2 KeyPress:False Matched:False	1	2	false	false	Correct	false	n/a	n-backMarkers
625.137291	0.020000	dropped_samples	5871.103951	Dropped 5 samples	n/a	n/a	n/a	n/a	n/a	n/a	5	UoHDataOffsetStream
625.566954	0.012000	dropped_samples	5871.533614	Dropped 3 samples	n/a	n/a	n/a	n/a	n/a	n/a	3	UoHDataOffsetStream
626.044503	0.000000	2-back	5872.011164	Steps:2 KeyPress:False Matched:True	0	2	false	true	Wrong	false	n/a	n-backMarkers
627.019163	0.008000	dropped_samples	5872.985823	Dropped 2 samples	n/a	n/a	n/a	n/a	n/a	n/a	2	UoHDataOffsetStream
627.745474	0.000000	2-back	5873.712134	Steps:2 KeyPress:False Matched:False	1	2	false	false	Correct	false	n/a	n-backMarkers
628.281811	0.036000	dropped_samples	5874.248472	Dropped 9 samples	n/a	n/a	n/a	n/a	n/a	n/a	9	UoHDataOffsetStream
629.287683	0.028000	dropped_samples	5875.254343	Dropped 7 samples	n/a	n/a	n/a	n/a	n/a	n/a	7	UoHDataOffsetStream
629.446560	0.000000	2-back	5875.413221	Steps:2 KeyPress:False Matched:False	1	2	false	false	Correct	false	n/a	n-backMarkers
629.674138	0.012000	dropped_samples	5875.640799	Dropped 3 samples	n/a	n/a	n/a	n/a	n/a	n/a	3	UoHDataOffsetStream
630.103364	0.008000	dropped_samples	5876.070024	Dropped 2 samples	n/a	n/a	n/a	n/a	n/a	n/a	2	UoHDataOffsetStream
631.147441	0.000000	2-back	5877.114102	Steps:2 KeyPress:False Matched:False	1	2	false	false	Correct	false	n/a	n-backMarkers
631.182262	0.016000	dropped_samples	5877.148922	Dropped 4 samples	n/a	n/a	n/a	n/a	n/a	n/a	4	UoHDataOffsetStream
631.949283	0.004000	dropped_samples	5877.915943	Dropped 1 samples	n/a	n/a	n/a	n/a	n/a	n/a	1	UoHDataOffsetStream
632.041479	0.016000	dropped_samples	5878.008140	Dropped 4 samples	n/a	n/a	n/a	n/a	n/a	n/a	4	UoHDataOffsetStream
632.847763	0.000000	2-back	5878.814424	Steps:2 KeyPress:False Matched:False	1	2	false	false	Correct	false	n/a	n-backMarkers
634.549604	0.000000	2-back	5880.516264	Steps:2 KeyPress:True Matched:False	0	2	true	false	Wrong	false	n/a	n-backMarkers
635.105275	0.008000	dropped_samples	5881.071936	Dropped 2 samples	n/a	n/a	n/a	n/a	n/a	n/a	2	UoHDataOffsetStream
636.086765	0.004000	dropped_samples	5882.053425	Dropped 1 samples	n/a	n/a	n/a	n/a	n/a	n/a	1	UoHDataOffsetStream
636.251285	0.000000	2-back	5882.217946	Steps:2 KeyPress:False Matched:False	1	2	false	false	Correct	false	n/a	n-backMarkers
637.256494	0.008000	dropped_samples	5883.223154	Dropped 2 samples	n/a	n/a	n/a	n/a	n/a	n/a	2	UoHDataOffsetStream
637.952640	0.000000	2-back	5883.919301	Steps:2 KeyPress:False Matched:False	1	2	false	false	Correct	false	n/a	n-backMarkers
638.145852	0.028000	dropped_samples	5884.112512	Dropped 7 samples	n/a	n/a	n/a	n/a	n/a	n/a	7	UoHDataOffsetStream
639.058924	0.012000	dropped_samples	5885.025585	Dropped 3 samples	n/a	n/a	n/a	n/a	n/a	n/a	3	UoHDataOffsetStream
639.652608	0.000000	2-back	5885.619269	Steps:2 KeyPress:True Matched:False	0	2	true	false	Wrong	false	n/a	n-backMarkers
640.673005	0.016000	dropped_samples	5886.639666	Dropped 4 samples	n/a	n/a	n/a	n/a	n/a	n/a	4	UoHDataOffsetStream
640.713505	0.104000	dropped_samples	5886.680166	Dropped 26 samples	n/a	n/a	n/a	n/a	n/a	n/a	26	UoHDataOffsetStream
641.353843	0.000000	2-back	5887.320503	Steps:2 KeyPress:False Matched:False	1	2	false	false	Correct	false	n/a	n-backMarkers
641.650983	0.004000	dropped_samples	5887.617643	Dropped 1 samples	n/a	n/a	n/a	n/a	n/a	n/a	1	UoHDataOffsetStream
642.021055	0.004000	dropped_samples	5887.987716	Dropped 1 samples	n/a	n/a	n/a	n/a	n/a	n/a	1	UoHDataOffsetStream
643.055315	0.000000	2-back	5889.021975	Steps:2 KeyPress:False Matched:False	1	2	false	false	Correct	false	n/a	n-backMarkers
644.756285	0.000000	2-back	5890.722945	Steps:2 KeyPress:True Matched:False	0	2	true	false	Wrong	false	n/a	n-backMarkers
646.457189	0.000000	2-back	5892.423849	Steps:2 KeyPress:False Matched:True	0	2	false	true	Wrong	false	n/a	n-backMarkers
648.158522	0.000000	2-back	5894.125182	Steps:2 KeyPress:False Matched:False	1	2	false	false	Correct	false	n/a	n-backMarkers
649.234042	0.004000	dropped_samples	5895.200703	Dropped 1 samples	n/a	n/a	n/a	n/a	n/a	n/a	1	UoHDataOffsetStream
649.737041	0.004000	dropped_samples	5895.703702	Dropped 1 samples	n/a	n/a	n/a	n/a	n/a	n/a	1	UoHDataOffsetStream
649.859660	0.000000	2-back	5895.826320	Steps:2 KeyPress:False Matched:False	1	2	false	false	Correct	false	n/a	n-backMarkers
651.104194	0.004000	dropped_samples	5897.070854	Dropped 1 samples	n/a	n/a	n/a	n/a	n/a	n/a	1	UoHDataOffsetStream
651.560996	0.000000	2-back	5897.527657	Steps:2 KeyPress:True Matched:False	0	2	true	false	Wrong	false	n/a	n-backMarkers
653.261062	0.000000	2-back	5899.227722	Steps:2 KeyPress:False Matched:True	0	2	false	true	Wrong	false	n/a	n-backMarkers
654.107119	0.004000	dropped_samples	5900.073780	Dropped 1 samples	n/a	n/a	n/a	n/a	n/a	n/a	1	UoHDataOffsetStream
654.961437	0.000000	2-back	5900.928098	Steps:2 KeyPress:False Matched:False	1	2	false	false	Correct	false	n/a	n-backMarkers
655.425455	0.004000	dropped_samples	5901.392116	Dropped 1 samples	n/a	n/a	n/a	n/a	n/a	n/a	1	UoHDataOffsetStream
656.662651	0.000000	2-back	5902.629311	Steps:2 KeyPress:True Matched:True	1	2	true	true	Correct	false	n/a	n-backMarkers
658.364304	0.000000	2-back	5904.330964	Steps:2 KeyPress:False Matched:False	1	2	false	false	Correct	false	n/a	n-backMarkers
660.064695	0.000000	2-back	5906.031355	Steps:2 KeyPress:False Matched:False	1	2	false	false	Correct	false	n/a	n-backMarkers
661.592536	0.004000	dropped_samples	5907.559197	Dropped 1 samples	n/a	n/a	n/a	n/a	n/a	n/a	1	UoHDataOffsetStream
661.766570	0.000000	2-back	5907.733231	Steps:2 KeyPress:False Matched:False	1	2	false	false	Correct	false	n/a	n-backMarkers
662.793607	0.004000	dropped_samples	5908.760268	Dropped 1 samples	n/a	n/a	n/a	n/a	n/a	n/a	1	UoHDataOffsetStream
663.467533	0.000000	2-back	5909.434193	Steps:2 KeyPress:False Matched:False	1	2	false	false	Correct	false	n/a	n-backMarkers
665.168920	0.000000	2-back	5911.135581	Steps:2 KeyPress:False Matched:False	1	2	false	false	Correct	false	n/a	n-backMarkers
666.868602	0.000000	2-back	5912.835262	Steps:2 KeyPress:False Matched:False	1	2	false	false	Correct	false	n/a	n-backMarkers
668.569770	0.000000	2-back	5914.536431	Steps:2 KeyPress:False Matched:False	1	2	false	false	Correct	false	n/a	n-backMarkers
670.271144	0.000000	2-back	5916.237804	Steps:2 KeyPress:False Matched:False	1	2	false	false	Correct	false	n/a	n-backMarkers
671.972558	0.000000	2-back	5917.939219	Steps:2 KeyPress:True Matched:False	0	2	true	false	Wrong	false	n/a	n-backMarkers
673.673433	0.000000	2-back	5919.640094	Steps:2 KeyPress:False Matched:True	0	2	false	true	Wrong	false	n/a	n-backMarkers
682.207761	0.004000	dropped_samples	5928.174421	Dropped 1 samples	n/a	n/a	n/a	n/a	n/a	n/a	1	UoHDataOffsetStream
682.378273	0.000000	3-back	5928.344933	Steps:3 KeyPress:False Matched:False	1	3	false	false	Correct	false	n/a	n-backMarkers
683.311938	0.004000	dropped_samples	5929.278599	Dropped 1 samples	n/a	n/a	n/a	n/a	n/a	n/a	1	UoHDataOffsetStream
684.080155	0.000000	3-back	5930.046815	Steps:3 KeyPress:False Matched:False	1	3	false	false	Correct	false	n/a	n-backMarkers
685.781226	0.000000	3-back	5931.747887	Steps:3 KeyPress:False Matched:False	1	3	false	false	Correct	false	n/a	n-backMarkers
686.074985	0.004000	dropped_samples	5932.041646	Dropped 1 samples	n/a	n/a	n/a	n/a	n/a	n/a	1	UoHDataOffsetStream
687.482490	0.000000	3-back	5933.449151	Steps:3 KeyPress:False Matched:False	1	3	false	false	Correct	false	n/a	n-backMarkers
688.067240	0.004000	dropped_samples	5934.033900	Dropped 1 samples	n/a	n/a	n/a	n/a	n/a	n/a	1	UoHDataOffsetStream
689.183457	0.000000	3-back	5935.150117	Steps:3 KeyPress:False Matched:False	1	3	false	false	Correct	false	n/a	n-backMarkers
690.884719	0.000000	3-back	5936.851380	Steps:3 KeyPress:False Matched:False	1	3	false	false	Correct	false	n/a	n-backMarkers
692.586136	0.000000	3-back	5938.552797	Steps:3 KeyPress:False Matched:False	1	3	false	false	Correct	false	n/a	n-backMarkers
694.286474	0.000000	3-back	5940.253135	Steps:3 KeyPress:False Matched:False	1	3	false	false	Correct	false	n/a	n-backMarkers
695.988386	0.000000	3-back	5941.955046	Steps:3 KeyPress:False Matched:True	0	3	false	true	Wrong	false	n/a	n-backMarkers
697.688560	0.000000	3-back	5943.655221	Steps:3 KeyPress:False Matched:False	1	3	false	false	Correct	false	n/a	n-backMarkers
698.047610	0.004000	dropped_samples	5944.014271	Dropped 1 samples	n/a	n/a	n/a	n/a	n/a	n/a	1	UoHDataOffsetStream
699.390493	0.000000	3-back	5945.357153	Steps:3 KeyPress:False Matched:False	1	3	false	false	Correct	false	n/a	n-backMarkers
701.091499	0.000000	3-back	5947.058159	Steps:3 KeyPress:False Matched:False	1	3	false	false	Correct	false	n/a	n-backMarkers
702.792520	0.000000	3-back	5948.759180	Steps:3 KeyPress:False Matched:False	1	3	false	false	Correct	false	n/a	n-backMarkers
704.493902	0.000000	3-back	5950.460563	Steps:3 KeyPress:False Matched:False	1	3	false	false	Correct	false	n/a	n-backMarkers
706.195307	0.000000	3-back	5952.161968	Steps:3 KeyPress:False Matched:False	1	3	false	false	Correct	false	n/a	n-backMarkers
707.896536	0.000000	3-back	5953.863197	Steps:3 KeyPress:False Matched:False	1	3	false	false	Correct	false	n/a	n-backMarkers
709.598312	0.000000	3-back	5955.564972	Steps:3 KeyPress:False Matched:False	1	3	false	false	Correct	false	n/a	n-backMarkers
711.299489	0.000000	3-back	5957.266150	Steps:3 KeyPress:False Matched:False	1	3	false	false	Correct	false	n/a	n-backMarkers
712.231101	0.004000	dropped_samples	5958.197761	Dropped 1 samples	n/a	n/a	n/a	n/a	n/a	n/a	1	UoHDataOffsetStream
712.257092	0.012000	dropped_samples	5958.223753	Dropped 3 samples	n/a	n/a	n/a	n/a	n/a	n/a	3	UoHDataOffsetStream
712.305500	0.032000	dropped_samples	5958.272160	Dropped 8 samples	n/a	n/a	n/a	n/a	n/a	n/a	8	UoHDataOffsetStream
712.691184	0.008000	dropped_samples	5958.657845	Dropped 2 samples	n/a	n/a	n/a	n/a	n/a	n/a	2	UoHDataOffsetStream
712.857244	0.004000	dropped_samples	5958.823904	Dropped 1 samples	n/a	n/a	n/a	n/a	n/a	n/a	1	UoHDataOffsetStream
713.000573	0.000000	3-back	5958.967233	Steps:3 KeyPress:False Matched:False	1	3	false	false	Correct	false	n/a	n-backMarkers
713.911937	0.004000	dropped_samples	5959.878597	Dropped 1 samples	n/a	n/a	n/a	n/a	n/a	n/a	1	UoHDataOffsetStream
714.297680	0.004000	dropped_samples	5960.264341	Dropped 1 samples	n/a	n/a	n/a	n/a	n/a	n/a	1	UoHDataOffsetStream
714.658983	0.012000	dropped_samples	5960.625643	Dropped 3 samples	n/a	n/a	n/a	n/a	n/a	n/a	3	UoHDataOffsetStream
714.701555	0.000000	3-back	5960.668216	Steps:3 KeyPress:False Matched:False	1	3	false	false	Correct	false	n/a	n-backMarkers
716.403258	0.000000	3-back	5962.369918	Steps:3 KeyPress:False Matched:False	1	3	false	false	Correct	false	n/a	n-backMarkers
716.696300	0.016000	dropped_samples	5962.662960	Dropped 4 samples	n/a	n/a	n/a	n/a	n/a	n/a	4	UoHDataOffsetStream
718.104370	0.000000	3-back	5964.071030	Steps:3 KeyPress:False Matched:False	1	3	false	false	Correct	false	n/a	n-backMarkers
718.618989	0.012000	dropped_samples	5964.585650	Dropped 3 samples	n/a	n/a	n/a	n/a	n/a	n/a	3	UoHDataOffsetStream
719.243990	0.004000	dropped_samples	5965.210650	Dropped 1 samples	n/a	n/a	n/a	n/a	n/a	n/a	1	UoHDataOffsetStream
719.804617	0.000000	3-back	5965.771277	Steps:3 KeyPress:False Matched:False	1	3	false	false	Correct	false	n/a	n-backMarkers
720.415935	0.004000	dropped_samples	5966.382596	Dropped 1 samples	n/a	n/a	n/a	n/a	n/a	n/a	1	UoHDataOffsetStream
721.505066	0.000000	3-back	5967.471726	Steps:3 KeyPress:False Matched:False	1	3	false	false	Correct	false	n/a	n-backMarkers
723.122390	0.008000	dropped_samples	5969.089050	Dropped 2 samples	n/a	n/a	n/a	n/a	n/a	n/a	2	UoHDataOffsetStream
723.205745	0.000000	3-back	5969.172406	Steps:3 KeyPress:False Matched:False	1	3	false	false	Correct	false	n/a	n-backMarkers
724.907581	0.000000	3-back	5970.874242	Steps:3 KeyPress:False Matched:True	0	3	false	true	Wrong	false	n/a	n-backMarkers
725.747868	0.004000	dropped_samples	5971.714528	Dropped 1 samples	n/a	n/a	n/a	n/a	n/a	n/a	1	UoHDataOffsetStream
726.396648	0.004000	dropped_samples	5972.363309	Dropped 1 samples	n/a	n/a	n/a	n/a	n/a	n/a	1	UoHDataOffsetStream
726.607929	0.000000	3-back	5972.574590	Steps:3 KeyPress:False Matched:False	1	3	false	false	Correct	false	n/a	n-backMarkers
728.309430	0.000000	3-back	5974.276091	Steps:3 KeyPress:False Matched:False	1	3	false	false	Correct	false	n/a	n-backMarkers
728.459906	0.008000	dropped_samples	5974.426566	Dropped 2 samples	n/a	n/a	n/a	n/a	n/a	n/a	2	UoHDataOffsetStream
730.010444	0.000000	3-back	5975.977104	Steps:3 KeyPress:False Matched:False	1	3	false	false	Correct	false	n/a	n-backMarkers
730.713768	0.008000	dropped_samples	5976.680428	Dropped 2 samples	n/a	n/a	n/a	n/a	n/a	n/a	2	UoHDataOffsetStream
731.711036	0.000000	3-back	5977.677696	Steps:3 KeyPress:False Matched:False	1	3	false	false	Correct	false	n/a	n-backMarkers
733.412119	0.000000	3-back	5979.378779	Steps:3 KeyPress:False Matched:False	1	3	false	false	Correct	false	n/a	n-backMarkers
735.113375	0.000000	3-back	5981.080035	Steps:3 KeyPress:False Matched:False	1	3	false	false	Correct	false	n/a	n-backMarkers
735.660108	0.008000	dropped_samples	5981.626769	Dropped 2 samples	n/a	n/a	n/a	n/a	n/a	n/a	2	UoHDataOffsetStream
736.814422	0.000000	3-back	5982.781082	Steps:3 KeyPress:False Matched:False	1	3	false	false	Correct	false	n/a	n-backMarkers
738.030662	0.008000	dropped_samples	5983.997323	Dropped 2 samples	n/a	n/a	n/a	n/a	n/a	n/a	2	UoHDataOffsetStream
738.082214	0.040000	dropped_samples	5984.048875	Dropped 10 samples	n/a	n/a	n/a	n/a	n/a	n/a	10	UoHDataOffsetStream
738.515897	0.000000	3-back	5984.482558	Steps:3 KeyPress:False Matched:False	1	3	false	false	Correct	false	n/a	n-backMarkers
738.824245	0.008000	dropped_samples	5984.790905	Dropped 2 samples	n/a	n/a	n/a	n/a	n/a	n/a	2	UoHDataOffsetStream
739.530174	0.008000	dropped_samples	5985.496834	Dropped 2 samples	n/a	n/a	n/a	n/a	n/a	n/a	2	UoHDataOffsetStream
739.669931	0.004000	dropped_samples	5985.636592	Dropped 1 samples	n/a	n/a	n/a	n/a	n/a	n/a	1	UoHDataOffsetStream
740.215883	0.000000	3-back	5986.182544	Steps:3 KeyPress:False Matched:True	0	3	false	true	Wrong	false	n/a	n-backMarkers
741.917582	0.000000	3-back	5987.884243	Steps:3 KeyPress:False Matched:False	1	3	false	false	Correct	false	n/a	n-backMarkers
742.452159	0.004000	dropped_samples	5988.418820	Dropped 1 samples	n/a	n/a	n/a	n/a	n/a	n/a	1	UoHDataOffsetStream
743.618183	0.000000	3-back	5989.584844	Steps:3 KeyPress:False Matched:False	1	3	false	false	Correct	false	n/a	n-backMarkers
745.319497	0.000000	3-back	5991.286158	Steps:3 KeyPress:False Matched:False	1	3	false	false	Correct	false	n/a	n-backMarkers
747.020551	0.000000	3-back	5992.987212	Steps:3 KeyPress:False Matched:False	1	3	false	false	Correct	false	n/a	n-backMarkers
748.721531	0.000000	3-back	5994.688192	Steps:3 KeyPress:False Matched:True	0	3	false	true	Wrong	false	n/a	n-backMarkers
749.606589	0.016000	dropped_samples	5995.573249	Dropped 4 samples	n/a	n/a	n/a	n/a	n/a	n/a	4	UoHDataOffsetStream
749.961918	0.004000	dropped_samples	5995.928579	Dropped 1 samples	n/a	n/a	n/a	n/a	n/a	n/a	1	UoHDataOffsetStream
750.422456	0.000000	3-back	5996.389116	Steps:3 KeyPress:False Matched:False	1	3	false	false	Correct	false	n/a	n-backMarkers
752.123341	0.000000	3-back	5998.090001	Steps:3 KeyPress:False Matched:False	1	3	false	false	Correct	false	n/a	n-backMarkers
753.823892	0.000000	3-back	5999.790553	Steps:3 KeyPress:False Matched:False	1	3	false	false	Correct	false	n/a	n-backMarkers
755.525537	0.000000	3-back	6001.492197	Steps:3 KeyPress:False Matched:False	1	3	false	false	Correct	false	n/a	n-backMarkers
757.066356	0.004000	dropped_samples	6003.033017	Dropped 1 samples	n/a	n/a	n/a	n/a	n/a	n/a	1	UoHDataOffsetStream
757.227143	0.000000	3-back	6003.193803	Steps:3 KeyPress:False Matched:True	0	3	false	true	Wrong	false	n/a	n-backMarkers
758.928455	0.000000	3-back	6004.895116	Steps:3 KeyPress:False Matched:False	1	3	false	false	Correct	false	n/a	n-backMarkers
759.200158	0.012000	dropped_samples	6005.166818	Dropped 3 samples	n/a	n/a	n/a	n/a	n/a	n/a	3	UoHDataOffsetStream
760.259744	0.004000	dropped_samples	6006.226405	Dropped 1 samples	n/a	n/a	n/a	n/a	n/a	n/a	1	UoHDataOffsetStream
760.474604	0.004000	dropped_samples	6006.441265	Dropped 1 samples	n/a	n/a	n/a	n/a	n/a	n/a	1	UoHDataOffsetStream
760.628452	0.000000	3-back	6006.595112	Steps:3 KeyPress:False Matched:False	1	3	false	false	Correct	false	n/a	n-backMarkers
762.329436	0.000000	3-back	6008.296097	Steps:3 KeyPress:False Matched:False	1	3	false	false	Correct	false	n/a	n-backMarkers
764.030233	0.000000	3-back	6009.996894	Steps:3 KeyPress:False Matched:False	1	3	false	false	Correct	false	n/a	n-backMarkers
765.731537	0.000000	3-back	6011.698197	Steps:3 KeyPress:False Matched:False	1	3	false	false	Correct	false	n/a	n-backMarkers
766.541129	0.012000	dropped_samples	6012.507789	Dropped 3 samples	n/a	n/a	n/a	n/a	n/a	n/a	3	UoHDataOffsetStream
766.568372	0.012000	dropped_samples	6012.535033	Dropped 3 samples	n/a	n/a	n/a	n/a	n/a	n/a	3	UoHDataOffsetStream
766.949237	0.012000	dropped_samples	6012.915898	Dropped 3 samples	n/a	n/a	n/a	n/a	n/a	n/a	3	UoHDataOffsetStream
767.002970	0.008000	dropped_samples	6012.969630	Dropped 2 samples	n/a	n/a	n/a	n/a	n/a	n/a	2	UoHDataOffsetStream
767.431812	0.000000	3-back	6013.398472	Steps:3 KeyPress:False Matched:False	1	3	false	false	Correct	false	n/a	n-backMarkers
769.133228	0.000000	3-back	6015.099888	Steps:3 KeyPress:False Matched:False	1	3	false	false	Correct	false	n/a	n-backMarkers
770.834006	0.000000	3-back	6016.800667	Steps:3 KeyPress:False Matched:False	1	3	false	false	Correct	false	n/a	n-backMarkers
771.251598	0.004000	dropped_samples	6017.218258	Dropped 1 samples	n/a	n/a	n/a	n/a	n/a	n/a	1	UoHDataOffsetStream
772.310876	0.004000	dropped_samples	6018.277536	Dropped 1 samples	n/a	n/a	n/a	n/a	n/a	n/a	1	UoHDataOffsetStream
772.535378	0.000000	3-back	6018.502039	Steps:3 KeyPress:False Matched:False	1	3	false	false	Correct	false	n/a	n-backMarkers
772.764606	0.004000	dropped_samples	6018.731267	Dropped 1 samples	n/a	n/a	n/a	n/a	n/a	n/a	1	UoHDataOffsetStream
774.236480	0.000000	3-back	6020.203141	Steps:3 KeyPress:False Matched:True	0	3	false	true	Wrong	false	n/a	n-backMarkers
775.137672	0.004000	dropped_samples	6021.104332	Dropped 1 samples	n/a	n/a	n/a	n/a	n/a	n/a	1	UoHDataOffsetStream
775.937662	0.000000	3-back	6021.904322	Steps:3 KeyPress:False Matched:False	1	3	false	false	Correct	false	n/a	n-backMarkers
777.638760	0.000000	3-back	6023.605420	Steps:3 KeyPress:False Matched:False	1	3	false	false	Correct	false	n/a	n-backMarkers
779.339534	0.000000	3-back	6025.306194	Steps:3 KeyPress:False Matched:False	1	3	false	false	Correct	false	n/a	n-backMarkers
781.039974	0.000000	3-back	6027.006634	Steps:3 KeyPress:False Matched:False	1	3	false	false	Correct	false	n/a	n-backMarkers
782.740396	0.000000	3-back	6028.707057	Steps:3 KeyPress:False Matched:False	1	3	false	false	Correct	false	n/a	n-backMarkers
784.442157	0.000000	3-back	6030.408817	Steps:3 KeyPress:False Matched:False	1	3	false	false	Correct	false	n/a	n-backMarkers
786.142458	0.000000	3-back	6032.109118	Steps:3 KeyPress:False Matched:False	1	3	false	false	Correct	false	n/a	n-backMarkers
786.656350	0.004000	dropped_samples	6032.623011	Dropped 1 samples	n/a	n/a	n/a	n/a	n/a	n/a	1	UoHDataOffsetStream
787.844067	0.000000	3-back	6033.810728	Steps:3 KeyPress:False Matched:False	1	3	false	false	Correct	false	n/a	n-backMarkers
789.544484	0.000000	3-back	6035.511144	Steps:3 KeyPress:False Matched:True	0	3	false	true	Wrong	false	n/a	n-backMarkers
791.245138	0.000000	3-back	6037.211798	Steps:3 KeyPress:False Matched:False	1	3	false	false	Correct	false	n/a	n-backMarkers
792.946085	0.000000	3-back	6038.912746	Steps:3 KeyPress:False Matched:False	1	3	false	false	Correct	false	n/a	n-backMarkers
793.858449	0.004000	dropped_samples	6039.825109	Dropped 1 samples	n/a	n/a	n/a	n/a	n/a	n/a	1	UoHDataOffsetStream
794.646384	0.000000	3-back	6040.613045	Steps:3 KeyPress:False Matched:False	1	3	false	false	Correct	false	n/a	n-backMarkers
796.347299	0.000000	3-back	6042.313960	Steps:3 KeyPress:False Matched:False	1	3	false	false	Correct	false	n/a	n-backMarkers
798.047709	0.000000	3-back	6044.014369	Steps:3 KeyPress:False Matched:False	1	3	false	false	Correct	false	n/a	n-backMarkers
799.749449	0.000000	3-back	6045.716109	Steps:3 KeyPress:False Matched:False	1	3	false	false	Correct	false	n/a	n-backMarkers
801.450475	0.000000	3-back	6047.417135	Steps:3 KeyPress:False Matched:True	0	3	false	true	Wrong	false	n/a	n-backMarkers
803.151058	0.000000	3-back	6049.117719	Steps:3 KeyPress:False Matched:False	1	3	false	false	Correct	false	n/a	n-backMarkers
804.009874	0.012000	dropped_samples	6049.976535	Dropped 3 samples	n/a	n/a	n/a	n/a	n/a	n/a	3	UoHDataOffsetStream
804.851351	0.000000	3-back	6050.818011	Steps:3 KeyPress:False Matched:False	1	3	false	false	Correct	false	n/a	n-backMarkers
805.044993	0.004000	dropped_samples	6051.011653	Dropped 1 samples	n/a	n/a	n/a	n/a	n/a	n/a	1	UoHDataOffsetStream
806.552401	0.000000	3-back	6052.519062	Steps:3 KeyPress:False Matched:False	1	3	false	false	Correct	false	n/a	n-backMarkers
808.254140	0.000000	3-back	6054.220801	Steps:3 KeyPress:False Matched:False	1	3	false	false	Correct	false	n/a	n-backMarkers
809.955407	0.000000	3-back	6055.922068	Steps:3 KeyPress:False Matched:False	1	3	false	false	Correct	false	n/a	n-backMarkers
810.059671	0.004000	dropped_samples	6056.026332	Dropped 1 samples	n/a	n/a	n/a	n/a	n/a	n/a	1	UoHDataOffsetStream
811.656457	0.000000	3-back	6057.623118	Steps:3 KeyPress:False Matched:False	1	3	false	false	Correct	false	n/a	n-backMarkers
813.357337	0.000000	3-back	6059.323997	Steps:3 KeyPress:False Matched:False	1	3	false	false	Correct	false	n/a	n-backMarkers
814.522566	0.004000	dropped_samples	6060.489227	Dropped 1 samples	n/a	n/a	n/a	n/a	n/a	n/a	1	UoHDataOffsetStream
815.058856	0.000000	3-back	6061.025517	Steps:3 KeyPress:False Matched:False	1	3	false	false	Correct	false	n/a	n-backMarkers
816.759444	0.000000	3-back	6062.726104	Steps:3 KeyPress:False Matched:False	1	3	false	false	Correct	false	n/a	n-backMarkers
818.459476	0.000000	3-back	6064.426137	Steps:3 KeyPress:False Matched:True	0	3	false	true	Wrong	false	n/a	n-backMarkers
820.160464	0.000000	3-back	6066.127125	Steps:3 KeyPress:False Matched:False	1	3	false	false	Correct	false	n/a	n-backMarkers
821.861726	0.000000	3-back	6067.828386	Steps:3 KeyPress:False Matched:False	1	3	false	false	Correct	false	n/a	n-backMarkers
823.562324	0.000000	3-back	6069.528985	Steps:3 KeyPress:False Matched:True	0	3	false	true	Wrong	false	n/a	n-backMarkers
825.264104	0.000000	3-back	6071.230764	Steps:3 KeyPress:True Matched:False	0	3	true	false	Wrong	false	n/a	n-backMarkers
826.964779	0.000000	3-back	6072.931440	Steps:3 KeyPress:False Matched:False	1	3	false	false	Correct	false	n/a	n-backMarkers
828.665803	0.000000	3-back	6074.632463	Steps:3 KeyPress:False Matched:False	1	3	false	false	Correct	false	n/a	n-backMarkers
830.366371	0.000000	3-back	6076.333032	Steps:3 KeyPress:False Matched:False	1	3	false	false	Correct	false	n/a	n-backMarkers
832.068427	0.000000	3-back	6078.035087	Steps:3 KeyPress:True Matched:True	1	3	true	true	Correct	false	n/a	n-backMarkers
833.770122	0.000000	3-back	6079.736783	Steps:3 KeyPress:False Matched:False	1	3	false	false	Correct	false	n/a	n-backMarkers
835.471067	0.000000	3-back	6081.437728	Steps:3 KeyPress:False Matched:False	1	3	false	false	Correct	false	n/a	n-backMarkers
837.172771	0.000000	3-back	6083.139432	Steps:3 KeyPress:False Matched:False	1	3	false	false	Correct	false	n/a	n-backMarkers
837.633017	0.012000	dropped_samples	6083.599677	Dropped 3 samples	n/a	n/a	n/a	n/a	n/a	n/a	3	UoHDataOffsetStream
838.874246	0.000000	3-back	6084.840907	Steps:3 KeyPress:False Matched:False	1	3	false	false	Correct	false	n/a	n-backMarkers
840.575046	0.000000	3-back	6086.541706	Steps:3 KeyPress:True Matched:True	1	3	true	true	Correct	false	n/a	n-backMarkers
842.276172	0.000000	3-back	6088.242833	Steps:3 KeyPress:False Matched:False	1	3	false	false	Correct	false	n/a	n-backMarkers
843.804872	0.004000	dropped_samples	6089.771532	Dropped 1 samples	n/a	n/a	n/a	n/a	n/a	n/a	1	UoHDataOffsetStream
843.976415	0.000000	3-back	6089.943076	Steps:3 KeyPress:False Matched:False	1	3	false	false	Correct	false	n/a	n-backMarkers
845.678160	0.000000	3-back	6091.644821	Steps:3 KeyPress:False Matched:False	1	3	false	false	Correct	false	n/a	n-backMarkers
845.914235	0.004000	dropped_samples	6091.880896	Dropped 1 samples	n/a	n/a	n/a	n/a	n/a	n/a	1	UoHDataOffsetStream
847.378473	0.000000	3-back	6093.345134	Steps:3 KeyPress:False Matched:False	1	3	false	false	Correct	false	n/a	n-backMarkers
847.906399	0.004000	dropped_samples	6093.873059	Dropped 1 samples	n/a	n/a	n/a	n/a	n/a	n/a	1	UoHDataOffsetStream
848.917183	0.012000	dropped_samples	6094.883844	Dropped 3 samples	n/a	n/a	n/a	n/a	n/a	n/a	3	UoHDataOffsetStream
849.079325	0.000000	3-back	6095.045985	Steps:3 KeyPress:False Matched:False	1	3	false	false	Correct	false	n/a	n-backMarkers
850.780684	0.000000	3-back	6096.747344	Steps:3 KeyPress:True Matched:True	1	3	true	true	Correct	false	n/a	n-backMarkers
853.189668	0.004000	dropped_samples	6099.156329	Dropped 1 samples	n/a	n/a	n/a	n/a	n/a	n/a	1	UoHDataOffsetStream
859.499136	0.000000	4-back	6105.465797	Steps:4 KeyPress:False Matched:False	1	4	false	false	Correct	false	n/a	n-backMarkers
860.074456	0.004000	dropped_samples	6106.041116	Dropped 1 samples	n/a	n/a	n/a	n/a	n/a	n/a	1	UoHDataOffsetStream
861.185030	0.004000	dropped_samples	6107.151690	Dropped 1 samples	n/a	n/a	n/a	n/a	n/a	n/a	1	UoHDataOffsetStream
861.199447	0.000000	4-back	6107.166107	Steps:4 KeyPress:False Matched:True	0	4	false	true	Wrong	false	n/a	n-backMarkers
862.488565	0.008000	dropped_samples	6108.455225	Dropped 2 samples	n/a	n/a	n/a	n/a	n/a	n/a	2	UoHDataOffsetStream
862.602002	0.008000	dropped_samples	6108.568663	Dropped 2 samples	n/a	n/a	n/a	n/a	n/a	n/a	2	UoHDataOffsetStream
862.899952	0.000000	4-back	6108.866612	Steps:4 KeyPress:False Matched:False	1	4	false	false	Correct	false	n/a	n-backMarkers
863.421363	0.008000	dropped_samples	6109.388024	Dropped 2 samples	n/a	n/a	n/a	n/a	n/a	n/a	2	UoHDataOffsetStream
863.565522	0.008000	dropped_samples	6109.532182	Dropped 2 samples	n/a	n/a	n/a	n/a	n/a	n/a	2	UoHDataOffsetStream
863.700886	0.008000	dropped_samples	6109.667546	Dropped 2 samples	n/a	n/a	n/a	n/a	n/a	n/a	2	UoHDataOffsetStream
864.601222	0.000000	4-back	6110.567883	Steps:4 KeyPress:False Matched:False	1	4	false	false	Correct	false	n/a	n-backMarkers
865.357656	0.004000	dropped_samples	6111.324317	Dropped 1 samples	n/a	n/a	n/a	n/a	n/a	n/a	1	UoHDataOffsetStream
866.302195	0.000000	4-back	6112.268856	Steps:4 KeyPress:False Matched:False	1	4	false	false	Correct	false	n/a	n-backMarkers
868.002457	0.000000	4-back	6113.969117	Steps:4 KeyPress:False Matched:True	0	4	false	true	Wrong	false	n/a	n-backMarkers
869.703490	0.000000	4-back	6115.670150	Steps:4 KeyPress:False Matched:False	1	4	false	false	Correct	false	n/a	n-backMarkers
871.405174	0.000000	4-back	6117.371834	Steps:4 KeyPress:False Matched:True	0	4	false	true	Wrong	false	n/a	n-backMarkers
872.619634	0.008000	dropped_samples	6118.586295	Dropped 2 samples	n/a	n/a	n/a	n/a	n/a	n/a	2	UoHDataOffsetStream
872.841487	0.008000	dropped_samples	6118.808147	Dropped 2 samples	n/a	n/a	n/a	n/a	n/a	n/a	2	UoHDataOffsetStream
872.989519	0.008000	dropped_samples	6118.956180	Dropped 2 samples	n/a	n/a	n/a	n/a	n/a	n/a	2	UoHDataOffsetStream
873.106231	0.000000	4-back	6119.072892	Steps:4 KeyPress:False Matched:False	1	4	false	false	Correct	false	n/a	n-backMarkers
873.696274	0.012000	dropped_samples	6119.662934	Dropped 3 samples	n/a	n/a	n/a	n/a	n/a	n/a	3	UoHDataOffsetStream
873.923877	0.008000	dropped_samples	6119.890537	Dropped 2 samples	n/a	n/a	n/a	n/a	n/a	n/a	2	UoHDataOffsetStream
873.946507	0.024000	dropped_samples	6119.913168	Dropped 6 samples	n/a	n/a	n/a	n/a	n/a	n/a	6	UoHDataOffsetStream
874.651048	0.004000	dropped_samples	6120.617708	Dropped 1 samples	n/a	n/a	n/a	n/a	n/a	n/a	1	UoHDataOffsetStream
874.807194	0.000000	4-back	6120.773854	Steps:4 KeyPress:False Matched:False	1	4	false	false	Correct	false	n/a	n-backMarkers
874.823829	0.008000	dropped_samples	6120.790489	Dropped 2 samples	n/a	n/a	n/a	n/a	n/a	n/a	2	UoHDataOffsetStream
874.860298	0.008000	dropped_samples	6120.826958	Dropped 2 samples	n/a	n/a	n/a	n/a	n/a	n/a	2	UoHDataOffsetStream
876.373286	0.036000	dropped_samples	6122.339947	Dropped 9 samples	n/a	n/a	n/a	n/a	n/a	n/a	9	UoHDataOffsetStream
876.508582	0.000000	4-back	6122.475242	Steps:4 KeyPress:False Matched:False	1	4	false	false	Correct	false	n/a	n-backMarkers
877.857700	0.008000	dropped_samples	6123.824360	Dropped 2 samples	n/a	n/a	n/a	n/a	n/a	n/a	2	UoHDataOffsetStream
878.209905	0.000000	4-back	6124.176565	Steps:4 KeyPress:False Matched:True	0	4	false	true	Wrong	false	n/a	n-backMarkers
879.910339	0.000000	4-back	6125.876999	Steps:4 KeyPress:False Matched:True	0	4	false	true	Wrong	false	n/a	n-backMarkers
880.860801	0.004000	dropped_samples	6126.827462	Dropped 1 samples	n/a	n/a	n/a	n/a	n/a	n/a	1	UoHDataOffsetStream
881.611339	0.000000	4-back	6127.578000	Steps:4 KeyPress:False Matched:False	1	4	false	false	Correct	false	n/a	n-backMarkers
883.312469	0.000000	4-back	6129.279130	Steps:4 KeyPress:False Matched:False	1	4	false	false	Correct	false	n/a	n-backMarkers
885.014022	0.000000	4-back	6130.980683	Steps:4 KeyPress:True Matched:False	0	4	true	false	Wrong	false	n/a	n-backMarkers
885.469989	0.004000	dropped_samples	6131.436649	Dropped 1 samples	n/a	n/a	n/a	n/a	n/a	n/a	1	UoHDataOffsetStream
886.715436	0.000000	4-back	6132.682096	Steps:4 KeyPress:False Matched:True	0	4	false	true	Wrong	false	n/a	n-backMarkers
888.417193	0.000000	4-back	6134.383853	Steps:4 KeyPress:False Matched:True	0	4	false	true	Wrong	false	n/a	n-backMarkers
889.259104	0.004000	dropped_samples	6135.225765	Dropped 1 samples	n/a	n/a	n/a	n/a	n/a	n/a	1	UoHDataOffsetStream
890.118292	0.000000	4-back	6136.084953	Steps:4 KeyPress:False Matched:False	1	4	false	false	Correct	false	n/a	n-backMarkers
891.819774	0.000000	4-back	6137.786435	Steps:4 KeyPress:False Matched:False	1	4	false	false	Correct	false	n/a	n-backMarkers
892.501301	0.004000	dropped_samples	6138.467962	Dropped 1 samples	n/a	n/a	n/a	n/a	n/a	n/a	1	UoHDataOffsetStream
893.520397	0.000000	4-back	6139.487057	Steps:4 KeyPress:False Matched:False	1	4	false	false	Correct	false	n/a	n-backMarkers
894.708740	0.004000	dropped_samples	6140.675401	Dropped 1 samples	n/a	n/a	n/a	n/a	n/a	n/a	1	UoHDataOffsetStream
895.221870	0.000000	4-back	6141.188531	Steps:4 KeyPress:False Matched:True	0	4	false	true	Wrong	false	n/a	n-backMarkers
896.923263	0.000000	4-back	6142.889923	Steps:4 KeyPress:False Matched:True	0	4	false	true	Wrong	false	n/a	n-backMarkers
898.624563	0.000000	4-back	6144.591224	Steps:4 KeyPress:True Matched:False	0	4	true	false	Wrong	false	n/a	n-backMarkers
898.785468	0.004000	dropped_samples	6144.752129	Dropped 1 samples	n/a	n/a	n/a	n/a	n/a	n/a	1	UoHDataOffsetStream
900.326335	0.000000	4-back	6146.292996	Steps:4 KeyPress:False Matched:False	1	4	false	false	Correct	false	n/a	n-backMarkers
902.027195	0.000000	4-back	6147.993856	Steps:4 KeyPress:False Matched:False	1	4	false	false	Correct	false	n/a	n-backMarkers
903.728170	0.000000	4-back	6149.694830	Steps:4 KeyPress:False Matched:True	0	4	false	true	Wrong	false	n/a	n-backMarkers
905.429181	0.000000	4-back	6151.395842	Steps:4 KeyPress:False Matched:True	0	4	false	true	Wrong	false	n/a	n-backMarkers
907.130354	0.000000	4-back	6153.097014	Steps:4 KeyPress:False Matched:False	1	4	false	false	Correct	false	n/a	n-backMarkers
908.292404	0.004000	dropped_samples	6154.259064	Dropped 1 samples	n/a	n/a	n/a	n/a	n/a	n/a	1	UoHDataOffsetStream
908.832726	0.000000	4-back	6154.799387	Steps:4 KeyPress:False Matched:False	1	4	false	false	Correct	false	n/a	n-backMarkers
910.533431	0.000000	4-back	6156.500092	Steps:4 KeyPress:False Matched:False	1	4	false	false	Correct	false	n/a	n-backMarkers
912.234558	0.000000	4-back	6158.201218	Steps:4 KeyPress:False Matched:True	0	4	false	true	Wrong	false	n/a	n-backMarkers
913.935117	0.000000	4-back	6159.901778	Steps:4 KeyPress:False Matched:True	0	4	false	true	Wrong	false	n/a	n-backMarkers
915.636176	0.000000	4-back	6161.602837	Steps:4 KeyPress:False Matched:False	1	4	false	false	Correct	false	n/a	n-backMarkers
917.338094	0.000000	4-back	6163.304754	Steps:4 KeyPress:False Matched:False	1	4	false	false	Correct	false	n/a	n-backMarkers
918.852064	0.012000	dropped_samples	6164.818725	Dropped 3 samples	n/a	n/a	n/a	n/a	n/a	n/a	3	UoHDataOffsetStream
919.003909	0.020000	dropped_samples	6164.970570	Dropped 5 samples	n/a	n/a	n/a	n/a	n/a	n/a	5	UoHDataOffsetStream
919.039207	0.000000	4-back	6165.005867	Steps:4 KeyPress:False Matched:False	1	4	false	false	Correct	false	n/a	n-backMarkers
919.044467	0.008000	dropped_samples	6165.011128	Dropped 2 samples	n/a	n/a	n/a	n/a	n/a	n/a	2	UoHDataOffsetStream
920.132916	0.004000	dropped_samples	6166.099576	Dropped 1 samples	n/a	n/a	n/a	n/a	n/a	n/a	1	UoHDataOffsetStream
920.154985	0.008000	dropped_samples	6166.121645	Dropped 2 samples	n/a	n/a	n/a	n/a	n/a	n/a	2	UoHDataOffsetStream
920.693956	0.004000	dropped_samples	6166.660616	Dropped 1 samples	n/a	n/a	n/a	n/a	n/a	n/a	1	UoHDataOffsetStream
920.740038	0.000000	4-back	6166.706698	Steps:4 KeyPress:False Matched:True	0	4	false	true	Wrong	false	n/a	n-backMarkers
920.856560	0.012000	dropped_samples	6166.823220	Dropped 3 samples	n/a	n/a	n/a	n/a	n/a	n/a	3	UoHDataOffsetStream
920.965903	0.008000	dropped_samples	6166.932564	Dropped 2 samples	n/a	n/a	n/a	n/a	n/a	n/a	2	UoHDataOffsetStream
921.563898	0.004000	dropped_samples	6167.530559	Dropped 1 samples	n/a	n/a	n/a	n/a	n/a	n/a	1	UoHDataOffsetStream
922.440266	0.000000	4-back	6168.406926	Steps:4 KeyPress:False Matched:False	1	4	false	false	Correct	false	n/a	n-backMarkers
924.141066	0.000000	4-back	6170.107726	Steps:4 KeyPress:False Matched:False	1	4	false	false	Correct	false	n/a	n-backMarkers
924.205535	0.004000	dropped_samples	6170.172195	Dropped 1 samples	n/a	n/a	n/a	n/a	n/a	n/a	1	UoHDataOffsetStream
925.204549	0.008000	dropped_samples	6171.171210	Dropped 2 samples	n/a	n/a	n/a	n/a	n/a	n/a	2	UoHDataOffsetStream
925.351049	0.012000	dropped_samples	6171.317710	Dropped 3 samples	n/a	n/a	n/a	n/a	n/a	n/a	3	UoHDataOffsetStream
925.407171	0.020000	dropped_samples	6171.373831	Dropped 5 samples	n/a	n/a	n/a	n/a	n/a	n/a	5	UoHDataOffsetStream
925.842277	0.000000	4-back	6171.808938	Steps:4 KeyPress:False Matched:True	0	4	false	true	Wrong	false	n/a	n-backMarkers
927.542864	0.000000	4-back	6173.509525	Steps:4 KeyPress:False Matched:False	1	4	false	false	Correct	false	n/a	n-backMarkers
929.243468	0.000000	4-back	6175.210129	Steps:4 KeyPress:True Matched:False	0	4	true	false	Wrong	false	n/a	n-backMarkers
929.685111	0.004000	dropped_samples	6175.651771	Dropped 1 samples	n/a	n/a	n/a	n/a	n/a	n/a	1	UoHDataOffsetStream
930.019243	0.008000	dropped_samples	6175.985904	Dropped 2 samples	n/a	n/a	n/a	n/a	n/a	n/a	2	UoHDataOffsetStream
930.299242	0.016000	dropped_samples	6176.265903	Dropped 4 samples	n/a	n/a	n/a	n/a	n/a	n/a	4	UoHDataOffsetStream
930.944330	0.000000	4-back	6176.910991	Steps:4 KeyPress:False Matched:False	1	4	false	false	Correct	false	n/a	n-backMarkers
930.976922	0.004000	dropped_samples	6176.943582	Dropped 1 samples	n/a	n/a	n/a	n/a	n/a	n/a	1	UoHDataOffsetStream
931.285586	0.008000	dropped_samples	6177.252246	Dropped 2 samples	n/a	n/a	n/a	n/a	n/a	n/a	2	UoHDataOffsetStream
931.935662	0.004000	dropped_samples	6177.902323	Dropped 1 samples	n/a	n/a	n/a	n/a	n/a	n/a	1	UoHDataOffsetStream
932.040282	0.012000	dropped_samples	6178.006943	Dropped 3 samples	n/a	n/a	n/a	n/a	n/a	n/a	3	UoHDataOffsetStream
932.070810	0.008000	dropped_samples	6178.037470	Dropped 2 samples	n/a	n/a	n/a	n/a	n/a	n/a	2	UoHDataOffsetStream
932.237935	0.004000	dropped_samples	6178.204596	Dropped 1 samples	n/a	n/a	n/a	n/a	n/a	n/a	1	UoHDataOffsetStream
932.644472	0.000000	4-back	6178.611132	Steps:4 KeyPress:False Matched:True	0	4	false	true	Wrong	false	n/a	n-backMarkers
934.346193	0.000000	4-back	6180.312854	Steps:4 KeyPress:False Matched:True	0	4	false	true	Wrong	false	n/a	n-backMarkers
935.245568	0.004000	dropped_samples	6181.212229	Dropped 1 samples	n/a	n/a	n/a	n/a	n/a	n/a	1	UoHDataOffsetStream
936.048376	0.000000	4-back	6182.015036	Steps:4 KeyPress:False Matched:False	1	4	false	false	Correct	false	n/a	n-backMarkers
936.688357	0.008000	dropped_samples	6182.655018	Dropped 2 samples	n/a	n/a	n/a	n/a	n/a	n/a	2	UoHDataOffsetStream
936.809025	0.008000	dropped_samples	6182.775685	Dropped 2 samples	n/a	n/a	n/a	n/a	n/a	n/a	2	UoHDataOffsetStream
937.018006	0.012000	dropped_samples	6182.984667	Dropped 3 samples	n/a	n/a	n/a	n/a	n/a	n/a	3	UoHDataOffsetStream
937.749295	0.000000	4-back	6183.715955	Steps:4 KeyPress:False Matched:False	1	4	false	false	Correct	false	n/a	n-backMarkers
939.451019	0.000000	4-back	6185.417679	Steps:4 KeyPress:False Matched:False	1	4	false	false	Correct	false	n/a	n-backMarkers
940.548492	0.008000	dropped_samples	6186.515153	Dropped 2 samples	n/a	n/a	n/a	n/a	n/a	n/a	2	UoHDataOffsetStream
940.714304	0.008000	dropped_samples	6186.680965	Dropped 2 samples	n/a	n/a	n/a	n/a	n/a	n/a	2	UoHDataOffsetStream
941.151230	0.000000	4-back	6187.117891	Steps:4 KeyPress:False Matched:True	0	4	false	true	Wrong	false	n/a	n-backMarkers
941.165683	0.012000	dropped_samples	6187.132344	Dropped 3 samples	n/a	n/a	n/a	n/a	n/a	n/a	3	UoHDataOffsetStream
941.176130	0.012000	dropped_samples	6187.142791	Dropped 3 samples	n/a	n/a	n/a	n/a	n/a	n/a	3	UoHDataOffsetStream
941.325346	0.012000	dropped_samples	6187.292007	Dropped 3 samples	n/a	n/a	n/a	n/a	n/a	n/a	3	UoHDataOffsetStream
941.632481	0.004000	dropped_samples	6187.599141	Dropped 1 samples	n/a	n/a	n/a	n/a	n/a	n/a	1	UoHDataOffsetStream
941.842097	0.008000	dropped_samples	6187.808758	Dropped 2 samples	n/a	n/a	n/a	n/a	n/a	n/a	2	UoHDataOffsetStream
941.978548	0.008000	dropped_samples	6187.945209	Dropped 2 samples	n/a	n/a	n/a	n/a	n/a	n/a	2	UoHDataOffsetStream
942.013149	0.004000	dropped_samples	6187.979809	Dropped 1 samples	n/a	n/a	n/a	n/a	n/a	n/a	1	UoHDataOffsetStream
942.755516	0.012000	dropped_samples	6188.722176	Dropped 3 samples	n/a	n/a	n/a	n/a	n/a	n/a	3	UoHDataOffsetStream
942.852493	0.000000	4-back	6188.819153	Steps:4 KeyPress:False Matched:False	1	4	false	false	Correct	false	n/a	n-backMarkers
942.982082	0.004000	dropped_samples	6188.948742	Dropped 1 samples	n/a	n/a	n/a	n/a	n/a	n/a	1	UoHDataOffsetStream
943.772812	0.020000	dropped_samples	6189.739473	Dropped 5 samples	n/a	n/a	n/a	n/a	n/a	n/a	5	UoHDataOffsetStream
943.889414	0.008000	dropped_samples	6189.856075	Dropped 2 samples	n/a	n/a	n/a	n/a	n/a	n/a	2	UoHDataOffsetStream
