onset	duration	trial_type	timestamp_lsl	marker	response_accuracy	difficulty_range	nback_n	keypress	matched	outcome	istutorial	dropped_samples	marker_stream
0.033521	0.004000	dropped_samples	7247.890930	Dropped 1 samples	n/a	n/a	n/a	n/a	n/a	n/a	n/a	1	UoHDataOffsetStream
0.174071	0.004000	dropped_samples	7248.031480	Dropped 1 samples	n/a	n/a	n/a	n/a	n/a	n/a	n/a	1	UoHDataOffsetStream
11.936749	0.012000	dropped_samples	7259.794157	Dropped 3 samples	n/a	n/a	n/a	n/a	n/a	n/a	n/a	3	UoHDataOffsetStream
15.056965	0.004000	dropped_samples	7262.914374	Dropped 1 samples	n/a	n/a	n/a	n/a	n/a	n/a	n/a	1	UoHDataOffsetStream
28.426020	0.004000	dropped_samples	7276.283429	Dropped 1 samples	n/a	n/a	n/a	n/a	n/a	n/a	n/a	1	UoHDataOffsetStream
29.910501	0.004000	dropped_samples	7277.767910	Dropped 1 samples	n/a	n/a	n/a	n/a	n/a	n/a	n/a	1	UoHDataOffsetStream
33.440698	0.004000	dropped_samples	7281.298107	Dropped 1 samples	n/a	n/a	n/a	n/a	n/a	n/a	n/a	1	UoHDataOffsetStream
34.721456	0.000000	started_tutorial_n-back	7282.578864	Started tutorial n-back	n/a	n/a	n/a	n/a	n/a	n/a	n/a	n/a	n-backMarkers
39.441759	0.008000	dropped_samples	7287.299168	Dropped 2 samples	n/a	n/a	n/a	n/a	n/a	n/a	n/a	2	UoHDataOffsetStream
39.822685	0.004000	dropped_samples	7287.680093	Dropped 1 samples	n/a	n/a	n/a	n/a	n/a	n/a	n/a	1	UoHDataOffsetStream
40.183991	0.004000	dropped_samples	7288.041400	Dropped 1 samples	n/a	n/a	n/a	n/a	n/a	n/a	n/a	1	UoHDataOffsetStream
45.154618	0.004000	dropped_samples	7293.012027	Dropped 1 samples	n/a	n/a	n/a	n/a	n/a	n/a	n/a	1	UoHDataOffsetStream
47.527698	0.008000	dropped_samples	7295.385107	Dropped 2 samples	n/a	n/a	n/a	n/a	n/a	n/a	n/a	2	UoHDataOffsetStream
48.030683	0.004000	dropped_samples	7295.888092	Dropped 1 samples	n/a	n/a	n/a	n/a	n/a	n/a	n/a	1	UoHDataOffsetStream
52.185914	0.012000	dropped_samples	7300.043322	Dropped 3 samples	n/a	n/a	n/a	n/a	n/a	n/a	n/a	3	UoHDataOffsetStream
56.097051	0.004000	dropped_samples	7303.954460	Dropped 1 samples	n/a	n/a	n/a	n/a	n/a	n/a	n/a	1	UoHDataOffsetStream
57.176116	0.004000	dropped_samples	7305.033524	Dropped 1 samples	n/a	n/a	n/a	n/a	n/a	n/a	n/a	1	UoHDataOffsetStream
61.043463	0.004000	dropped_samples	7308.900872	Dropped 1 samples	n/a	n/a	n/a	n/a	n/a	n/a	n/a	1	UoHDataOffsetStream
71.673268	0.004000	dropped_samples	7319.530676	Dropped 1 samples	n/a	n/a	n/a	n/a	n/a	n/a	n/a	1	UoHDataOffsetStream
78.055056	0.004000	dropped_samples	7325.912465	Dropped 1 samples	n/a	n/a	n/a	n/a	n/a	n/a	n/a	1	UoHDataOffsetStream
81.609776	0.068000	dropped_samples	7329.467185	Dropped 17 samples	n/a	n/a	n/a	n/a	n/a	n/a	n/a	17	UoHDataOffsetStream
86.170470	0.004000	dropped_samples	7334.027879	Dropped 1 samples	n/a	n/a	n/a	n/a	n/a	n/a	n/a	1	UoHDataOffsetStream
86.985824	0.012000	dropped_samples	7334.843233	Dropped 3 samples	n/a	n/a	n/a	n/a	n/a	n/a	n/a	3	UoHDataOffsetStream
89.168425	0.004000	dropped_samples	7337.025833	Dropped 1 samples	n/a	n/a	n/a	n/a	n/a	n/a	n/a	1	UoHDataOffsetStream
90.369579	0.004000	dropped_samples	7338.226988	Dropped 1 samples	n/a	n/a	n/a	n/a	n/a	n/a	n/a	1	UoHDataOffsetStream
90.823713	0.004000	dropped_samples	7338.681122	Dropped 1 samples	n/a	n/a	n/a	n/a	n/a	n/a	n/a	1	UoHDataOffsetStream
91.067961	0.004000	dropped_samples	7338.925370	Dropped 1 samples	n/a	n/a	n/a	n/a	n/a	n/a	n/a	1	UoHDataOffsetStream
91.785651	0.004000	dropped_samples	7339.643060	Dropped 1 samples	n/a	n/a	n/a	n/a	n/a	n/a	n/a	1	UoHDataOffsetStream
92.239747	0.004000	dropped_samples	7340.097156	Dropped 1 samples	n/a	n/a	n/a	n/a	n/a	n/a	n/a	1	UoHDataOffsetStream
94.451667	0.004000	dropped_samples	7342.309076	Dropped 1 samples	n/a	n/a	n/a	n/a	n/a	n/a	n/a	1	UoHDataOffsetStream
98.479987	0.004000	dropped_samples	7346.337395	Dropped 1 samples	n/a	n/a	n/a	n/a	n/a	n/a	n/a	1	UoHDataOffsetStream
100.955591	0.004000	dropped_samples	7348.813000	Dropped 1 samples	n/a	n/a	n/a	n/a	n/a	n/a	n/a	1	UoHDataOffsetStream
101.753729	1.701006	nback_1	7349.611138	Steps:1 KeyPress:False Matched:False	1	n/a	1	False	False	n/a	n/a	n/a	n-backMarkers
102.899047	0.004000	dropped_samples	7350.756456	Dropped 1 samples	n/a	n/a	n/a	n/a	n/a	n/a	n/a	1	UoHDataOffsetStream
103.453810	1.701006	nback_1	7351.311219	Steps:1 KeyPress:False Matched:False	1	n/a	1	False	False	n/a	n/a	n/a	n-backMarkers
103.665680	0.004000	dropped_samples	7351.523088	Dropped 1 samples	n/a	n/a	n/a	n/a	n/a	n/a	n/a	1	UoHDataOffsetStream
104.529813	0.004000	dropped_samples	7352.387222	Dropped 1 samples	n/a	n/a	n/a	n/a	n/a	n/a	n/a	1	UoHDataOffsetStream
105.154673	1.701006	nback_1	7353.012082	Steps:1 KeyPress:False Matched:True	0	n/a	1	False	True	n/a	n/a	n/a	n-backMarkers
106.855386	1.701006	nback_1	7354.712795	Steps:1 KeyPress:False Matched:True	0	n/a	1	False	True	n/a	n/a	n/a	n-backMarkers
108.556194	1.701006	nback_1	7356.413603	Steps:1 KeyPress:False Matched:False	1	n/a	1	False	False	n/a	n/a	n/a	n-backMarkers
109.188117	0.004000	dropped_samples	7357.045526	Dropped 1 samples	n/a	n/a	n/a	n/a	n/a	n/a	n/a	1	UoHDataOffsetStream
110.257212	1.701006	nback_1	7358.114621	Steps:1 KeyPress:False Matched:False	1	n/a	1	False	False	n/a	n/a	n/a	n-backMarkers
111.958441	1.701006	nback_1	7359.815850	Steps:1 KeyPress:False Matched:True	0	n/a	1	False	True	n/a	n/a	n/a	n-backMarkers
112.977164	0.004000	dropped_samples	7360.834573	Dropped 1 samples	n/a	n/a	n/a	n/a	n/a	n/a	n/a	1	UoHDataOffsetStream
113.660195	1.701006	nback_1	7361.517604	Steps:1 KeyPress:False Matched:False	1	n/a	1	False	False	n/a	n/a	n/a	n-backMarkers
114.442102	0.012000	dropped_samples	7362.299511	Dropped 3 samples	n/a	n/a	n/a	n/a	n/a	n/a	n/a	3	UoHDataOffsetStream
115.361112	1.701006	nback_1	7363.218521	Steps:1 KeyPress:False Matched:False	1	n/a	1	False	False	n/a	n/a	n/a	n-backMarkers
117.062117	1.701006	nback_1	7364.919525	Steps:1 KeyPress:False Matched:True	0	n/a	1	False	True	n/a	n/a	n/a	n-backMarkers
118.641173	0.012000	dropped_samples	7366.498582	Dropped 3 samples	n/a	n/a	n/a	n/a	n/a	n/a	n/a	3	UoHDataOffsetStream
118.765627	1.701006	nback_1	7366.623036	Steps:1 KeyPress:False Matched:False	1	n/a	1	False	False	n/a	n/a	n/a	n-backMarkers
120.465692	1.701006	nback_1	7368.323101	Steps:1 KeyPress:True Matched:False	0	n/a	1	True	False	n/a	n/a	n/a	n-backMarkers
121.356064	0.004000	dropped_samples	7369.213472	Dropped 1 samples	n/a	n/a	n/a	n/a	n/a	n/a	n/a	1	UoHDataOffsetStream
122.166532	1.701006	nback_1	7370.023941	Steps:1 KeyPress:False Matched:False	1	n/a	1	False	False	n/a	n/a	n/a	n-backMarkers
123.867149	1.701006	nback_1	7371.724557	Steps:1 KeyPress:True Matched:False	0	n/a	1	True	False	n/a	n/a	n/a	n-backMarkers
124.402983	0.004000	dropped_samples	7372.260391	Dropped 1 samples	n/a	n/a	n/a	n/a	n/a	n/a	n/a	1	UoHDataOffsetStream
125.568653	1.701006	nback_1	7373.426062	Steps:1 KeyPress:False Matched:True	0	n/a	1	False	True	n/a	n/a	n/a	n-backMarkers
126.058264	0.004000	dropped_samples	7373.915673	Dropped 1 samples	n/a	n/a	n/a	n/a	n/a	n/a	n/a	1	UoHDataOffsetStream
127.269663	1.701006	nback_1	7375.127072	Steps:1 KeyPress:False Matched:False	1	n/a	1	False	False	n/a	n/a	n/a	n-backMarkers
128.971926	1.701006	nback_1	7376.829335	Steps:1 KeyPress:True Matched:False	0	n/a	1	True	False	n/a	n/a	n/a	n-backMarkers
130.667562	0.016000	dropped_samples	7378.524971	Dropped 4 samples	n/a	n/a	n/a	n/a	n/a	n/a	n/a	4	UoHDataOffsetStream
130.672166	1.701006	nback_1	7378.529575	Steps:1 KeyPress:False Matched:True	0	n/a	1	False	True	n/a	n/a	n/a	n-backMarkers
132.374013	1.701006	nback_1	7380.231422	Steps:1 KeyPress:False Matched:True	0	n/a	1	False	True	n/a	n/a	n/a	n-backMarkers
134.075969	1.701006	nback_1	7381.933378	Steps:1 KeyPress:False Matched:False	1	n/a	1	False	False	n/a	n/a	n/a	n-backMarkers
135.394195	0.004000	dropped_samples	7383.251604	Dropped 1 samples	n/a	n/a	n/a	n/a	n/a	n/a	n/a	1	UoHDataOffsetStream
135.755511	0.004000	dropped_samples	7383.612920	Dropped 1 samples	n/a	n/a	n/a	n/a	n/a	n/a	n/a	1	UoHDataOffsetStream
135.778407	1.701006	nback_1	7383.635815	Steps:1 KeyPress:True Matched:False	0	n/a	1	True	False	n/a	n/a	n/a	n-backMarkers
139.212553	0.004000	dropped_samples	7387.069962	Dropped 1 samples	n/a	n/a	n/a	n/a	n/a	n/a	n/a	1	UoHDataOffsetStream
139.593624	0.008000	dropped_samples	7387.451033	Dropped 2 samples	n/a	n/a	n/a	n/a	n/a	n/a	n/a	2	UoHDataOffsetStream
142.163173	0.004000	dropped_samples	7390.020582	Dropped 1 samples	n/a	n/a	n/a	n/a	n/a	n/a	n/a	1	UoHDataOffsetStream
144.477891	1.701006	nback_2	7392.335300	Steps:2 KeyPress:False Matched:False	1	n/a	2	False	False	n/a	n/a	n/a	n-backMarkers
146.004615	0.004000	dropped_samples	7393.862024	Dropped 1 samples	n/a	n/a	n/a	n/a	n/a	n/a	n/a	1	UoHDataOffsetStream
146.179493	1.701006	nback_2	7394.036902	Steps:2 KeyPress:False Matched:False	1	n/a	2	False	False	n/a	n/a	n/a	n-backMarkers
147.880318	1.701006	nback_2	7395.737727	Steps:2 KeyPress:True Matched:False	0	n/a	2	True	False	n/a	n/a	n/a	n-backMarkers
149.581892	1.701006	nback_2	7397.439301	Steps:2 KeyPress:False Matched:False	1	n/a	2	False	False	n/a	n/a	n/a	n-backMarkers
150.970403	0.012000	dropped_samples	7398.827812	Dropped 3 samples	n/a	n/a	n/a	n/a	n/a	n/a	n/a	3	UoHDataOffsetStream
151.283427	1.701006	nback_2	7399.140836	Steps:2 KeyPress:False Matched:False	1	n/a	2	False	False	n/a	n/a	n/a	n-backMarkers
152.239926	0.004000	dropped_samples	7400.097334	Dropped 1 samples	n/a	n/a	n/a	n/a	n/a	n/a	n/a	1	UoHDataOffsetStream
152.984443	1.701006	nback_2	7400.841851	Steps:2 KeyPress:True Matched:False	0	n/a	2	True	False	n/a	n/a	n/a	n-backMarkers
154.188149	0.012000	dropped_samples	7402.045558	Dropped 3 samples	n/a	n/a	n/a	n/a	n/a	n/a	n/a	3	UoHDataOffsetStream
154.685515	1.701006	nback_2	7402.542924	Steps:2 KeyPress:False Matched:False	1	n/a	2	False	False	n/a	n/a	n/a	n-backMarkers
156.385778	1.701006	nback_2	7404.243187	Steps:2 KeyPress:True Matched:False	0	n/a	2	True	False	n/a	n/a	n/a	n-backMarkers
158.086510	1.701006	nback_2	7405.943919	Steps:2 KeyPress:False Matched:False	1	n/a	2	False	False	n/a	n/a	n/a	n-backMarkers
159.393269	0.004000	dropped_samples	7407.250678	Dropped 1 samples	n/a	n/a	n/a	n/a	n/a	n/a	n/a	1	UoHDataOffsetStream
159.787553	1.701006	nback_2	7407.644962	Steps:2 KeyPress:True Matched:False	0	n/a	2	True	False	n/a	n/a	n/a	n-backMarkers
161.488468	1.701006	nback_2	7409.345877	Steps:2 KeyPress:False Matched:False	1	n/a	2	False	False	n/a	n/a	n/a	n-backMarkers
162.488963	0.004000	dropped_samples	7410.346372	Dropped 1 samples	n/a	n/a	n/a	n/a	n/a	n/a	n/a	1	UoHDataOffsetStream
163.189227	1.701006	nback_2	7411.046636	Steps:2 KeyPress:False Matched:False	1	n/a	2	False	False	n/a	n/a	n/a	n-backMarkers
164.842528	0.004000	dropped_samples	7412.699937	Dropped 1 samples	n/a	n/a	n/a	n/a	n/a	n/a	n/a	1	UoHDataOffsetStream
164.890576	1.701006	nback_2	7412.747985	Steps:2 KeyPress:False Matched:True	0	n/a	2	False	True	n/a	n/a	n/a	n-backMarkers
166.592192	1.701006	nback_2	7414.449601	Steps:2 KeyPress:False Matched:True	0	n/a	2	False	True	n/a	n/a	n/a	n-backMarkers
167.962653	0.008000	dropped_samples	7415.820062	Dropped 2 samples	n/a	n/a	n/a	n/a	n/a	n/a	n/a	2	UoHDataOffsetStream
168.294471	1.701006	nback_2	7416.151880	Steps:2 KeyPress:False Matched:False	1	n/a	2	False	False	n/a	n/a	n/a	n-backMarkers
168.924597	0.004000	dropped_samples	7416.782006	Dropped 1 samples	n/a	n/a	n/a	n/a	n/a	n/a	n/a	1	UoHDataOffsetStream
169.995643	1.701006	nback_2	7417.853052	Steps:2 KeyPress:True Matched:False	0	n/a	2	True	False	n/a	n/a	n/a	n-backMarkers
171.695789	1.701006	nback_2	7419.553198	Steps:2 KeyPress:False Matched:False	1	n/a	2	False	False	n/a	n/a	n/a	n-backMarkers
173.396990	1.701006	nback_2	7421.254398	Steps:2 KeyPress:False Matched:False	1	n/a	2	False	False	n/a	n/a	n/a	n-backMarkers
175.097639	1.701006	nback_2	7422.955048	Steps:2 KeyPress:True Matched:False	0	n/a	2	True	False	n/a	n/a	n/a	n-backMarkers
176.556463	0.008000	dropped_samples	7424.413872	Dropped 2 samples	n/a	n/a	n/a	n/a	n/a	n/a	n/a	2	UoHDataOffsetStream
176.798904	1.701006	nback_2	7424.656312	Steps:2 KeyPress:False Matched:True	0	n/a	2	False	True	n/a	n/a	n/a	n-backMarkers
177.621959	0.004000	dropped_samples	7425.479368	Dropped 1 samples	n/a	n/a	n/a	n/a	n/a	n/a	n/a	1	UoHDataOffsetStream
177.708839	0.004000	dropped_samples	7425.566248	Dropped 1 samples	n/a	n/a	n/a	n/a	n/a	n/a	n/a	1	UoHDataOffsetStream
185.516766	1.701006	nback_3	7433.374175	Steps:3 KeyPress:False Matched:False	1	n/a	3	False	False	n/a	n/a	n/a	n-backMarkers
187.217727	1.701006	nback_3	7435.075136	Steps:3 KeyPress:False Matched:False	1	n/a	3	False	False	n/a	n/a	n/a	n-backMarkers
188.918064	1.701006	nback_3	7436.775473	Steps:3 KeyPress:False Matched:False	1	n/a	3	False	False	n/a	n/a	n/a	n-backMarkers
190.619230	1.701006	nback_3	7438.476639	Steps:3 KeyPress:False Matched:False	1	n/a	3	False	False	n/a	n/a	n/a	n-backMarkers
192.319971	1.701006	nback_3	7440.177379	Steps:3 KeyPress:False Matched:False	1	n/a	3	False	False	n/a	n/a	n/a	n-backMarkers
192.826006	0.012000	dropped_samples	7440.683415	Dropped 3 samples	n/a	n/a	n/a	n/a	n/a	n/a	n/a	3	UoHDataOffsetStream
194.020649	1.701006	nback_3	7441.878058	Steps:3 KeyPress:False Matched:False	1	n/a	3	False	False	n/a	n/a	n/a	n-backMarkers
194.168912	0.004000	dropped_samples	7442.026321	Dropped 1 samples	n/a	n/a	n/a	n/a	n/a	n/a	n/a	1	UoHDataOffsetStream
195.721727	1.701006	nback_3	7443.579136	Steps:3 KeyPress:False Matched:False	1	n/a	3	False	False	n/a	n/a	n/a	n-backMarkers
197.000901	0.004000	dropped_samples	7444.858310	Dropped 1 samples	n/a	n/a	n/a	n/a	n/a	n/a	n/a	1	UoHDataOffsetStream
197.098524	0.004000	dropped_samples	7444.955933	Dropped 1 samples	n/a	n/a	n/a	n/a	n/a	n/a	n/a	1	UoHDataOffsetStream
197.220541	0.004000	dropped_samples	7445.077949	Dropped 1 samples	n/a	n/a	n/a	n/a	n/a	n/a	n/a	1	UoHDataOffsetStream
197.422834	1.701006	nback_3	7445.280243	Steps:3 KeyPress:False Matched:True	0	n/a	3	False	True	n/a	n/a	n/a	n-backMarkers
199.124837	1.701006	nback_3	7446.982245	Steps:3 KeyPress:False Matched:False	1	n/a	3	False	False	n/a	n/a	n/a	n-backMarkers
200.825888	1.701006	nback_3	7448.683296	Steps:3 KeyPress:True Matched:False	0	n/a	3	True	False	n/a	n/a	n/a	n-backMarkers
202.527798	1.701006	nback_3	7450.385207	Steps:3 KeyPress:False Matched:False	1	n/a	3	False	False	n/a	n/a	n/a	n-backMarkers
204.228122	1.701006	nback_3	7452.085530	Steps:3 KeyPress:False Matched:False	1	n/a	3	False	False	n/a	n/a	n/a	n-backMarkers
205.928197	1.701006	nback_3	7453.785606	Steps:3 KeyPress:True Matched:False	0	n/a	3	True	False	n/a	n/a	n/a	n-backMarkers
207.629684	1.701006	nback_3	7455.487093	Steps:3 KeyPress:False Matched:True	0	n/a	3	False	True	n/a	n/a	n/a	n-backMarkers
209.330634	1.701006	nback_3	7457.188043	Steps:3 KeyPress:False Matched:False	1	n/a	3	False	False	n/a	n/a	n/a	n-backMarkers
209.868366	0.004000	dropped_samples	7457.725775	Dropped 1 samples	n/a	n/a	n/a	n/a	n/a	n/a	n/a	1	UoHDataOffsetStream
211.031019	1.701006	nback_3	7458.888428	Steps:3 KeyPress:False Matched:False	1	n/a	3	False	False	n/a	n/a	n/a	n-backMarkers
212.732683	1.701006	nback_3	7460.590092	Steps:3 KeyPress:True Matched:False	0	n/a	3	True	False	n/a	n/a	n/a	n-backMarkers
214.434831	1.701006	nback_3	7462.292240	Steps:3 KeyPress:True Matched:False	0	n/a	3	True	False	n/a	n/a	n/a	n-backMarkers
215.653236	0.004000	dropped_samples	7463.510645	Dropped 1 samples	n/a	n/a	n/a	n/a	n/a	n/a	n/a	1	UoHDataOffsetStream
216.135839	1.701006	nback_3	7463.993248	Steps:3 KeyPress:False Matched:False	1	n/a	3	False	False	n/a	n/a	n/a	n-backMarkers
217.235334	0.004000	dropped_samples	7465.092742	Dropped 1 samples	n/a	n/a	n/a	n/a	n/a	n/a	n/a	1	UoHDataOffsetStream
217.837686	1.701006	nback_3	7465.695095	Steps:3 KeyPress:False Matched:False	1	n/a	3	False	False	n/a	n/a	n/a	n-backMarkers
219.061482	0.004000	dropped_samples	7466.918891	Dropped 1 samples	n/a	n/a	n/a	n/a	n/a	n/a	n/a	1	UoHDataOffsetStream
219.588897	0.004000	dropped_samples	7467.446306	Dropped 1 samples	n/a	n/a	n/a	n/a	n/a	n/a	n/a	1	UoHDataOffsetStream
226.528182	1.701006	nback_4	7474.385591	Steps:4 KeyPress:False Matched:False	1	n/a	4	False	False	n/a	n/a	n/a	n-backMarkers
228.228323	1.701006	nback_4	7476.085732	Steps:4 KeyPress:False Matched:True	0	n/a	4	False	True	n/a	n/a	n/a	n-backMarkers
228.397675	0.004000	dropped_samples	7476.255083	Dropped 1 samples	n/a	n/a	n/a	n/a	n/a	n/a	n/a	1	UoHDataOffsetStream
229.929451	1.701006	nback_4	7477.786860	Steps:4 KeyPress:False Matched:False	1	n/a	4	False	False	n/a	n/a	n/a	n-backMarkers
231.630538	1.701006	nback_4	7479.487947	Steps:4 KeyPress:False Matched:False	1	n/a	4	False	False	n/a	n/a	n/a	n-backMarkers
231.826192	0.012000	dropped_samples	7479.683600	Dropped 3 samples	n/a	n/a	n/a	n/a	n/a	n/a	n/a	3	UoHDataOffsetStream
233.331871	1.701006	nback_4	7481.189280	Steps:4 KeyPress:False Matched:False	1	n/a	4	False	False	n/a	n/a	n/a	n-backMarkers
235.032848	1.701006	nback_4	7482.890257	Steps:4 KeyPress:True Matched:True	1	n/a	4	True	True	n/a	n/a	n/a	n-backMarkers
236.734535	1.701006	nback_4	7484.591944	Steps:4 KeyPress:False Matched:False	1	n/a	4	False	False	n/a	n/a	n/a	n-backMarkers
238.114239	0.012000	dropped_samples	7485.971648	Dropped 3 samples	n/a	n/a	n/a	n/a	n/a	n/a	n/a	3	UoHDataOffsetStream
238.435765	1.701006	nback_4	7486.293174	Steps:4 KeyPress:False Matched:False	1	n/a	4	False	False	n/a	n/a	n/a	n-backMarkers
238.862766	0.004000	dropped_samples	7486.720174	Dropped 1 samples	n/a	n/a	n/a	n/a	n/a	n/a	n/a	1	UoHDataOffsetStream
239.217917	0.004000	dropped_samples	7487.075325	Dropped 1 samples	n/a	n/a	n/a	n/a	n/a	n/a	n/a	1	UoHDataOffsetStream
240.137416	1.701006	nback_4	7487.994825	Steps:4 KeyPress:False Matched:False	1	n/a	4	False	False	n/a	n/a	n/a	n-backMarkers
240.682685	0.004000	dropped_samples	7488.540093	Dropped 1 samples	n/a	n/a	n/a	n/a	n/a	n/a	n/a	1	UoHDataOffsetStream
241.210623	0.004000	dropped_samples	7489.068032	Dropped 1 samples	n/a	n/a	n/a	n/a	n/a	n/a	n/a	1	UoHDataOffsetStream
241.352101	0.012000	dropped_samples	7489.209510	Dropped 3 samples	n/a	n/a	n/a	n/a	n/a	n/a	n/a	3	UoHDataOffsetStream
241.405265	0.008000	dropped_samples	7489.262674	Dropped 2 samples	n/a	n/a	n/a	n/a	n/a	n/a	n/a	2	UoHDataOffsetStream
241.837685	1.701006	nback_4	7489.695093	Steps:4 KeyPress:False Matched:True	0	n/a	4	False	True	n/a	n/a	n/a	n-backMarkers
242.313496	0.004000	dropped_samples	7490.170904	Dropped 1 samples	n/a	n/a	n/a	n/a	n/a	n/a	n/a	1	UoHDataOffsetStream
243.538724	1.701006	nback_4	7491.396133	Steps:4 KeyPress:False Matched:True	0	n/a	4	False	True	n/a	n/a	n/a	n-backMarkers
243.636728	0.012000	dropped_samples	7491.494137	Dropped 3 samples	n/a	n/a	n/a	n/a	n/a	n/a	n/a	3	UoHDataOffsetStream
245.240256	1.701006	nback_4	7493.097665	Steps:4 KeyPress:False Matched:False	1	n/a	4	False	False	n/a	n/a	n/a	n-backMarkers
246.942047	1.701006	nback_4	7494.799455	Steps:4 KeyPress:False Matched:False	1	n/a	4	False	False	n/a	n/a	n/a	n-backMarkers
247.738345	0.012000	dropped_samples	7495.595754	Dropped 3 samples	n/a	n/a	n/a	n/a	n/a	n/a	n/a	3	UoHDataOffsetStream
248.642264	1.701006	nback_4	7496.499673	Steps:4 KeyPress:False Matched:False	1	n/a	4	False	False	n/a	n/a	n/a	n-backMarkers
250.342415	1.701006	nback_4	7498.199824	Steps:4 KeyPress:False Matched:True	0	n/a	4	False	True	n/a	n/a	n/a	n-backMarkers
252.044181	1.701006	nback_4	7499.901590	Steps:4 KeyPress:False Matched:True	0	n/a	4	False	True	n/a	n/a	n/a	n-backMarkers
252.997105	0.004000	dropped_samples	7500.854514	Dropped 1 samples	n/a	n/a	n/a	n/a	n/a	n/a	n/a	1	UoHDataOffsetStream
253.745400	1.701006	nback_4	7501.602809	Steps:4 KeyPress:True Matched:False	0	n/a	4	True	False	n/a	n/a	n/a	n-backMarkers
254.818382	0.004000	dropped_samples	7502.675791	Dropped 1 samples	n/a	n/a	n/a	n/a	n/a	n/a	n/a	1	UoHDataOffsetStream
255.446398	1.701006	nback_4	7503.303807	Steps:4 KeyPress:False Matched:False	1	n/a	4	False	False	n/a	n/a	n/a	n-backMarkers
256.859372	0.004000	dropped_samples	7504.716781	Dropped 1 samples	n/a	n/a	n/a	n/a	n/a	n/a	n/a	1	UoHDataOffsetStream
257.147179	1.701006	nback_4	7505.004587	Steps:4 KeyPress:False Matched:False	1	n/a	4	False	False	n/a	n/a	n/a	n-backMarkers
257.171913	0.012000	dropped_samples	7505.029322	Dropped 3 samples	n/a	n/a	n/a	n/a	n/a	n/a	n/a	3	UoHDataOffsetStream
257.699336	0.004000	dropped_samples	7505.556745	Dropped 1 samples	n/a	n/a	n/a	n/a	n/a	n/a	n/a	1	UoHDataOffsetStream
258.848714	1.701006	nback_4	7506.706122	Steps:4 KeyPress:True Matched:True	1	n/a	4	True	True	n/a	n/a	n/a	n-backMarkers
259.554401	0.000000	finished_tutorial_n-back	7507.411810	Finished tutorial n-back	n/a	n/a	n/a	n/a	n/a	n/a	n/a	n/a	n-backMarkers
260.003959	0.012000	dropped_samples	7507.861367	Dropped 3 samples	n/a	n/a	n/a	n/a	n/a	n/a	n/a	3	UoHDataOffsetStream
266.210734	0.000000	started_n-back	7514.068143	Started n-back	n/a	n/a	n/a	n/a	n/a	n/a	n/a	n/a	n-backMarkers
267.801802	0.004000	dropped_samples	7515.659211	Dropped 1 samples	n/a	n/a	n/a	n/a	n/a	n/a	n/a	1	UoHDataOffsetStream
268.573340	0.012000	dropped_samples	7516.430749	Dropped 3 samples	n/a	n/a	n/a	n/a	n/a	n/a	n/a	3	UoHDataOffsetStream
272.171966	0.012000	dropped_samples	7520.029375	Dropped 3 samples	n/a	n/a	n/a	n/a	n/a	n/a	n/a	3	UoHDataOffsetStream
274.200322	1.701006	nback_1	7522.057731	Steps:1 KeyPress:False Matched:False	1	n/a	1	False	False	n/a	n/a	n/a	n-backMarkers
275.901344	1.701006	nback_1	7523.758753	Steps:1 KeyPress:True Matched:False	0	n/a	1	True	False	n/a	n/a	n/a	n-backMarkers
277.602313	1.701006	nback_1	7525.459721	Steps:1 KeyPress:False Matched:False	1	n/a	1	False	False	n/a	n/a	n/a	n-backMarkers
279.303504	1.701006	nback_1	7527.160912	Steps:1 KeyPress:True Matched:False	0	n/a	1	True	False	n/a	n/a	n/a	n-backMarkers
280.619280	0.004000	dropped_samples	7528.476688	Dropped 1 samples	n/a	n/a	n/a	n/a	n/a	n/a	n/a	1	UoHDataOffsetStream
281.005425	1.701006	nback_1	7528.862834	Steps:1 KeyPress:False Matched:True	0	n/a	1	False	True	n/a	n/a	n/a	n-backMarkers
282.707498	1.701006	nback_1	7530.564907	Steps:1 KeyPress:False Matched:True	0	n/a	1	False	True	n/a	n/a	n/a	n-backMarkers
284.407563	1.701006	nback_1	7532.264972	Steps:1 KeyPress:True Matched:False	0	n/a	1	True	False	n/a	n/a	n/a	n-backMarkers
284.554835	0.004000	dropped_samples	7532.412243	Dropped 1 samples	n/a	n/a	n/a	n/a	n/a	n/a	n/a	1	UoHDataOffsetStream
286.109388	1.701006	nback_1	7533.966797	Steps:1 KeyPress:False Matched:False	1	n/a	1	False	False	n/a	n/a	n/a	n-backMarkers
287.811643	1.701006	nback_1	7535.669052	Steps:1 KeyPress:True Matched:False	0	n/a	1	True	False	n/a	n/a	n/a	n-backMarkers
289.512378	1.701006	nback_1	7537.369787	Steps:1 KeyPress:False Matched:False	1	n/a	1	False	False	n/a	n/a	n/a	n-backMarkers
289.789236	0.012000	dropped_samples	7537.646645	Dropped 3 samples	n/a	n/a	n/a	n/a	n/a	n/a	n/a	3	UoHDataOffsetStream
291.213465	1.701006	nback_1	7539.070874	Steps:1 KeyPress:True Matched:False	0	n/a	1	True	False	n/a	n/a	n/a	n-backMarkers
292.915282	1.701006	nback_1	7540.772690	Steps:1 KeyPress:True Matched:True	1	n/a	1	True	True	n/a	n/a	n/a	n-backMarkers
293.002088	0.004000	dropped_samples	7540.859497	Dropped 1 samples	n/a	n/a	n/a	n/a	n/a	n/a	n/a	1	UoHDataOffsetStream
294.616271	1.701006	nback_1	7542.473680	Steps:1 KeyPress:False Matched:False	1	n/a	1	False	False	n/a	n/a	n/a	n-backMarkers
296.317390	1.701006	nback_1	7544.174799	Steps:1 KeyPress:True Matched:False	0	n/a	1	True	False	n/a	n/a	n/a	n-backMarkers
297.850762	0.004000	dropped_samples	7545.708171	Dropped 1 samples	n/a	n/a	n/a	n/a	n/a	n/a	n/a	1	UoHDataOffsetStream
298.018239	1.701006	nback_1	7545.875647	Steps:1 KeyPress:False Matched:False	1	n/a	1	False	False	n/a	n/a	n/a	n-backMarkers
299.719537	1.701006	nback_1	7547.576946	Steps:1 KeyPress:True Matched:False	0	n/a	1	True	False	n/a	n/a	n/a	n-backMarkers
301.420428	1.701006	nback_1	7549.277836	Steps:1 KeyPress:False Matched:False	1	n/a	1	False	False	n/a	n/a	n/a	n-backMarkers
303.121558	1.701006	nback_1	7550.978966	Steps:1 KeyPress:True Matched:False	0	n/a	1	True	False	n/a	n/a	n/a	n-backMarkers
304.823878	1.701006	nback_1	7552.681286	Steps:1 KeyPress:False Matched:True	0	n/a	1	False	True	n/a	n/a	n/a	n-backMarkers
306.524514	1.701006	nback_1	7554.381923	Steps:1 KeyPress:False Matched:False	1	n/a	1	False	False	n/a	n/a	n/a	n-backMarkers
306.757086	0.012000	dropped_samples	7554.614495	Dropped 3 samples	n/a	n/a	n/a	n/a	n/a	n/a	n/a	3	UoHDataOffsetStream
307.548032	0.004000	dropped_samples	7555.405441	Dropped 1 samples	n/a	n/a	n/a	n/a	n/a	n/a	n/a	1	UoHDataOffsetStream
308.225271	1.701006	nback_1	7556.082680	Steps:1 KeyPress:True Matched:False	0	n/a	1	True	False	n/a	n/a	n/a	n-backMarkers
309.926302	1.701006	nback_1	7557.783711	Steps:1 KeyPress:False Matched:True	0	n/a	1	False	True	n/a	n/a	n/a	n-backMarkers
311.508032	0.012000	dropped_samples	7559.365441	Dropped 3 samples	n/a	n/a	n/a	n/a	n/a	n/a	n/a	3	UoHDataOffsetStream
311.627381	1.701006	nback_1	7559.484790	Steps:1 KeyPress:True Matched:False	0	n/a	1	True	False	n/a	n/a	n/a	n-backMarkers
313.327655	1.701006	nback_1	7561.185063	Steps:1 KeyPress:True Matched:True	1	n/a	1	True	True	n/a	n/a	n/a	n-backMarkers
313.353706	0.004000	dropped_samples	7561.211115	Dropped 1 samples	n/a	n/a	n/a	n/a	n/a	n/a	n/a	1	UoHDataOffsetStream
315.028718	1.701006	nback_1	7562.886127	Steps:1 KeyPress:False Matched:True	0	n/a	1	False	True	n/a	n/a	n/a	n-backMarkers
315.106754	0.012000	dropped_samples	7562.964163	Dropped 3 samples	n/a	n/a	n/a	n/a	n/a	n/a	n/a	3	UoHDataOffsetStream
316.166288	0.004000	dropped_samples	7564.023696	Dropped 1 samples	n/a	n/a	n/a	n/a	n/a	n/a	n/a	1	UoHDataOffsetStream
316.522708	0.012000	dropped_samples	7564.380117	Dropped 3 samples	n/a	n/a	n/a	n/a	n/a	n/a	n/a	3	UoHDataOffsetStream
316.729725	1.701006	nback_1	7564.587134	Steps:1 KeyPress:False Matched:True	0	n/a	1	False	True	n/a	n/a	n/a	n-backMarkers
316.908461	0.004000	dropped_samples	7564.765869	Dropped 1 samples	n/a	n/a	n/a	n/a	n/a	n/a	n/a	1	UoHDataOffsetStream
318.430363	1.701006	nback_1	7566.287772	Steps:1 KeyPress:False Matched:False	1	n/a	1	False	False	n/a	n/a	n/a	n-backMarkers
320.130890	1.701006	nback_1	7567.988299	Steps:1 KeyPress:False Matched:False	1	n/a	1	False	False	n/a	n/a	n/a	n-backMarkers
321.831435	1.701006	nback_1	7569.688844	Steps:1 KeyPress:False Matched:False	1	n/a	1	False	False	n/a	n/a	n/a	n-backMarkers
323.532259	1.701006	nback_1	7571.389668	Steps:1 KeyPress:True Matched:False	0	n/a	1	True	False	n/a	n/a	n/a	n-backMarkers
323.700447	0.004000	dropped_samples	7571.557856	Dropped 1 samples	n/a	n/a	n/a	n/a	n/a	n/a	n/a	1	UoHDataOffsetStream
324.203447	0.004000	dropped_samples	7572.060856	Dropped 1 samples	n/a	n/a	n/a	n/a	n/a	n/a	n/a	1	UoHDataOffsetStream
325.233263	1.701006	nback_1	7573.090672	Steps:1 KeyPress:False Matched:False	1	n/a	1	False	False	n/a	n/a	n/a	n-backMarkers
325.814742	0.004000	dropped_samples	7573.672151	Dropped 1 samples	n/a	n/a	n/a	n/a	n/a	n/a	n/a	1	UoHDataOffsetStream
326.934632	1.701006	nback_1	7574.792041	Steps:1 KeyPress:True Matched:False	0	n/a	1	True	False	n/a	n/a	n/a	n-backMarkers
328.636099	1.701006	nback_1	7576.493508	Steps:1 KeyPress:False Matched:False	1	n/a	1	False	False	n/a	n/a	n/a	n-backMarkers
329.677015	0.004000	dropped_samples	7577.534424	Dropped 1 samples	n/a	n/a	n/a	n/a	n/a	n/a	n/a	1	UoHDataOffsetStream
330.337151	1.701006	nback_1	7578.194560	Steps:1 KeyPress:True Matched:False	0	n/a	1	True	False	n/a	n/a	n/a	n-backMarkers
332.037255	1.701006	nback_1	7579.894664	Steps:1 KeyPress:False Matched:False	1	n/a	1	False	False	n/a	n/a	n/a	n-backMarkers
333.737599	1.701006	nback_1	7581.595008	Steps:1 KeyPress:True Matched:False	0	n/a	1	True	False	n/a	n/a	n/a	n-backMarkers
335.101853	0.012000	dropped_samples	7582.959261	Dropped 3 samples	n/a	n/a	n/a	n/a	n/a	n/a	n/a	3	UoHDataOffsetStream
335.438422	1.701006	nback_1	7583.295830	Steps:1 KeyPress:False Matched:False	1	n/a	1	False	False	n/a	n/a	n/a	n-backMarkers
337.140265	1.701006	nback_1	7584.997673	Steps:1 KeyPress:True Matched:False	0	n/a	1	True	False	n/a	n/a	n/a	n-backMarkers
338.840279	1.701006	nback_1	7586.697687	Steps:1 KeyPress:False Matched:False	1	n/a	1	False	False	n/a	n/a	n/a	n-backMarkers
340.542195	1.701006	nback_1	7588.399604	Steps:1 KeyPress:True Matched:False	0	n/a	1	True	False	n/a	n/a	n/a	n-backMarkers
341.723030	0.004000	dropped_samples	7589.580438	Dropped 1 samples	n/a	n/a	n/a	n/a	n/a	n/a	n/a	1	UoHDataOffsetStream
342.181961	0.004000	dropped_samples	7590.039370	Dropped 1 samples	n/a	n/a	n/a	n/a	n/a	n/a	n/a	1	UoHDataOffsetStream
342.242520	1.701006	nback_1	7590.099929	Steps:1 KeyPress:False Matched:True	0	n/a	1	False	True	n/a	n/a	n/a	n-backMarkers
343.944115	1.701006	nback_1	7591.801523	Steps:1 KeyPress:False Matched:True	0	n/a	1	False	True	n/a	n/a	n/a	n-backMarkers
345.644207	1.701006	nback_1	7593.501616	Steps:1 KeyPress:False Matched:False	1	n/a	1	False	False	n/a	n/a	n/a	n-backMarkers
347.345282	1.701006	nback_1	7595.202691	Steps:1 KeyPress:False Matched:False	1	n/a	1	False	False	n/a	n/a	n/a	n-backMarkers
349.046287	1.701006	nback_1	7596.903696	Steps:1 KeyPress:False Matched:False	1	n/a	1	False	False	n/a	n/a	n/a	n-backMarkers
350.748154	1.701006	nback_1	7598.605563	Steps:1 KeyPress:True Matched:False	0	n/a	1	True	False	n/a	n/a	n/a	n-backMarkers
350.868491	0.004000	dropped_samples	7598.725900	Dropped 1 samples	n/a	n/a	n/a	n/a	n/a	n/a	n/a	1	UoHDataOffsetStream
352.448246	1.701006	nback_1	7600.305654	Steps:1 KeyPress:True Matched:True	1	n/a	1	True	True	n/a	n/a	n/a	n-backMarkers
354.149406	1.701006	nback_1	7602.006815	Steps:1 KeyPress:True Matched:True	1	n/a	1	True	True	n/a	n/a	n/a	n-backMarkers
355.850244	1.701006	nback_1	7603.707653	Steps:1 KeyPress:False Matched:False	1	n/a	1	False	False	n/a	n/a	n/a	n-backMarkers
357.348024	0.004000	dropped_samples	7605.205433	Dropped 1 samples	n/a	n/a	n/a	n/a	n/a	n/a	n/a	1	UoHDataOffsetStream
357.551456	1.701006	nback_1	7605.408865	Steps:1 KeyPress:True Matched:False	0	n/a	1	True	False	n/a	n/a	n/a	n-backMarkers
359.251370	1.701006	nback_1	7607.108779	Steps:1 KeyPress:False Matched:False	1	n/a	1	False	False	n/a	n/a	n/a	n-backMarkers
359.364633	0.012000	dropped_samples	7607.222041	Dropped 3 samples	n/a	n/a	n/a	n/a	n/a	n/a	n/a	3	UoHDataOffsetStream
360.952106	1.701006	nback_1	7608.809514	Steps:1 KeyPress:True Matched:False	0	n/a	1	True	False	n/a	n/a	n/a	n-backMarkers
362.653278	1.701006	nback_1	7610.510687	Steps:1 KeyPress:False Matched:False	1	n/a	1	False	False	n/a	n/a	n/a	n-backMarkers
363.900843	0.004000	dropped_samples	7611.758252	Dropped 1 samples	n/a	n/a	n/a	n/a	n/a	n/a	n/a	1	UoHDataOffsetStream
364.354156	1.701006	nback_1	7612.211565	Steps:1 KeyPress:True Matched:False	0	n/a	1	True	False	n/a	n/a	n/a	n-backMarkers
366.055619	1.701006	nback_1	7613.913028	Steps:1 KeyPress:False Matched:False	1	n/a	1	False	False	n/a	n/a	n/a	n-backMarkers
367.757243	1.701006	nback_1	7615.614652	Steps:1 KeyPress:True Matched:False	0	n/a	1	True	False	n/a	n/a	n/a	n-backMarkers
369.459096	1.701006	nback_1	7617.316504	Steps:1 KeyPress:False Matched:False	1	n/a	1	False	False	n/a	n/a	n/a	n-backMarkers
371.159382	1.701006	nback_1	7619.016791	Steps:1 KeyPress:True Matched:False	0	n/a	1	True	False	n/a	n/a	n/a	n-backMarkers
372.445839	0.004000	dropped_samples	7620.303248	Dropped 1 samples	n/a	n/a	n/a	n/a	n/a	n/a	n/a	1	UoHDataOffsetStream
372.859421	1.701006	nback_1	7620.716830	Steps:1 KeyPress:False Matched:True	0	n/a	1	False	True	n/a	n/a	n/a	n-backMarkers
373.690959	0.004000	dropped_samples	7621.548367	Dropped 1 samples	n/a	n/a	n/a	n/a	n/a	n/a	n/a	1	UoHDataOffsetStream
374.247526	0.004000	dropped_samples	7622.104935	Dropped 1 samples	n/a	n/a	n/a	n/a	n/a	n/a	n/a	1	UoHDataOffsetStream
374.561178	1.701006	nback_1	7622.418587	Steps:1 KeyPress:False Matched:False	1	n/a	1	False	False	n/a	n/a	n/a	n-backMarkers
376.166457	0.004000	dropped_samples	7624.023866	Dropped 1 samples	n/a	n/a	n/a	n/a	n/a	n/a	n/a	1	UoHDataOffsetStream
376.262121	1.701006	nback_1	7624.119530	Steps:1 KeyPress:True Matched:False	0	n/a	1	True	False	n/a	n/a	n/a	n-backMarkers
376.547332	0.004000	dropped_samples	7624.404741	Dropped 1 samples	n/a	n/a	n/a	n/a	n/a	n/a	n/a	1	UoHDataOffsetStream
377.172370	0.004000	dropped_samples	7625.029779	Dropped 1 samples	n/a	n/a	n/a	n/a	n/a	n/a	n/a	1	UoHDataOffsetStream
377.962499	1.701006	nback_1	7625.819908	Steps:1 KeyPress:False Matched:False	1	n/a	1	False	False	n/a	n/a	n/a	n-backMarkers
379.663452	1.701006	nback_1	7627.520861	Steps:1 KeyPress:True Matched:False	0	n/a	1	True	False	n/a	n/a	n/a	n-backMarkers
380.053165	0.004000	dropped_samples	7627.910574	Dropped 1 samples	n/a	n/a	n/a	n/a	n/a	n/a	n/a	1	UoHDataOffsetStream
380.316868	0.004000	dropped_samples	7628.174277	Dropped 1 samples	n/a	n/a	n/a	n/a	n/a	n/a	n/a	1	UoHDataOffsetStream
381.205646	0.004000	dropped_samples	7629.063054	Dropped 1 samples	n/a	n/a	n/a	n/a	n/a	n/a	n/a	1	UoHDataOffsetStream
381.365478	1.701006	nback_1	7629.222887	Steps:1 KeyPress:False Matched:True	0	n/a	1	False	True	n/a	n/a	n/a	n-backMarkers
383.066241	1.701006	nback_1	7630.923650	Steps:1 KeyPress:False Matched:True	0	n/a	1	False	True	n/a	n/a	n/a	n-backMarkers
384.768124	1.701006	nback_1	7632.625533	Steps:1 KeyPress:False Matched:False	1	n/a	1	False	False	n/a	n/a	n/a	n-backMarkers
386.366660	0.004000	dropped_samples	7634.224068	Dropped 1 samples	n/a	n/a	n/a	n/a	n/a	n/a	n/a	1	UoHDataOffsetStream
386.469454	1.701006	nback_1	7634.326863	Steps:1 KeyPress:True Matched:False	0	n/a	1	True	False	n/a	n/a	n/a	n-backMarkers
388.170161	1.701006	nback_1	7636.027569	Steps:1 KeyPress:False Matched:False	1	n/a	1	False	False	n/a	n/a	n/a	n-backMarkers
389.871470	1.701006	nback_1	7637.728879	Steps:1 KeyPress:True Matched:False	0	n/a	1	True	False	n/a	n/a	n/a	n-backMarkers
391.190928	0.004000	dropped_samples	7639.048337	Dropped 1 samples	n/a	n/a	n/a	n/a	n/a	n/a	n/a	1	UoHDataOffsetStream
391.572327	1.701006	nback_1	7639.429736	Steps:1 KeyPress:False Matched:False	1	n/a	1	False	False	n/a	n/a	n/a	n-backMarkers
393.273274	1.701006	nback_1	7641.130683	Steps:1 KeyPress:True Matched:False	0	n/a	1	True	False	n/a	n/a	n/a	n-backMarkers
394.452688	0.004000	dropped_samples	7642.310097	Dropped 1 samples	n/a	n/a	n/a	n/a	n/a	n/a	n/a	1	UoHDataOffsetStream
394.973495	1.701006	nback_1	7642.830904	Steps:1 KeyPress:False Matched:False	1	n/a	1	False	False	n/a	n/a	n/a	n-backMarkers
396.674380	1.701006	nback_1	7644.531789	Steps:1 KeyPress:True Matched:False	0	n/a	1	True	False	n/a	n/a	n/a	n-backMarkers
397.621635	0.004000	dropped_samples	7645.479043	Dropped 1 samples	n/a	n/a	n/a	n/a	n/a	n/a	n/a	1	UoHDataOffsetStream
398.375229	1.701006	nback_1	7646.232637	Steps:1 KeyPress:False Matched:False	1	n/a	1	False	False	n/a	n/a	n/a	n-backMarkers
398.725077	0.004000	dropped_samples	7646.582486	Dropped 1 samples	n/a	n/a	n/a	n/a	n/a	n/a	n/a	1	UoHDataOffsetStream
400.075800	1.701006	nback_1	7647.933209	Steps:1 KeyPress:True Matched:False	0	n/a	1	True	False	n/a	n/a	n/a	n-backMarkers
401.005462	0.004000	dropped_samples	7648.862871	Dropped 1 samples	n/a	n/a	n/a	n/a	n/a	n/a	n/a	1	UoHDataOffsetStream
401.317889	0.004000	dropped_samples	7649.175297	Dropped 1 samples	n/a	n/a	n/a	n/a	n/a	n/a	n/a	1	UoHDataOffsetStream
401.557168	0.004000	dropped_samples	7649.414577	Dropped 1 samples	n/a	n/a	n/a	n/a	n/a	n/a	n/a	1	UoHDataOffsetStream
401.776331	1.701006	nback_1	7649.633740	Steps:1 KeyPress:False Matched:True	0	n/a	1	False	True	n/a	n/a	n/a	n-backMarkers
402.685093	0.012000	dropped_samples	7650.542502	Dropped 3 samples	n/a	n/a	n/a	n/a	n/a	n/a	n/a	3	UoHDataOffsetStream
403.477187	1.701006	nback_1	7651.334595	Steps:1 KeyPress:False Matched:False	1	n/a	1	False	False	n/a	n/a	n/a	n-backMarkers
405.178177	1.701006	nback_1	7653.035586	Steps:1 KeyPress:True Matched:False	0	n/a	1	True	False	n/a	n/a	n/a	n-backMarkers
406.479141	0.004000	dropped_samples	7654.336550	Dropped 1 samples	n/a	n/a	n/a	n/a	n/a	n/a	n/a	1	UoHDataOffsetStream
406.879631	1.701006	nback_1	7654.737040	Steps:1 KeyPress:False Matched:True	0	n/a	1	False	True	n/a	n/a	n/a	n-backMarkers
408.581709	1.701006	nback_1	7656.439118	Steps:1 KeyPress:False Matched:True	0	n/a	1	False	True	n/a	n/a	n/a	n-backMarkers
409.955683	0.012000	dropped_samples	7657.813092	Dropped 3 samples	n/a	n/a	n/a	n/a	n/a	n/a	n/a	3	UoHDataOffsetStream
410.028849	0.004000	dropped_samples	7657.886257	Dropped 1 samples	n/a	n/a	n/a	n/a	n/a	n/a	n/a	1	UoHDataOffsetStream
410.283432	1.701006	nback_1	7658.140841	Steps:1 KeyPress:False Matched:False	1	n/a	1	False	False	n/a	n/a	n/a	n-backMarkers
411.984332	1.701006	nback_1	7659.841740	Steps:1 KeyPress:True Matched:False	0	n/a	1	True	False	n/a	n/a	n/a	n-backMarkers
413.686239	1.701006	nback_1	7661.543648	Steps:1 KeyPress:False Matched:True	0	n/a	1	False	True	n/a	n/a	n/a	n-backMarkers
415.386907	1.701006	nback_1	7663.244316	Steps:1 KeyPress:False Matched:True	0	n/a	1	False	True	n/a	n/a	n/a	n-backMarkers
417.087345	1.701006	nback_1	7664.944753	Steps:1 KeyPress:False Matched:False	1	n/a	1	False	False	n/a	n/a	n/a	n-backMarkers
418.788181	1.701006	nback_1	7666.645589	Steps:1 KeyPress:False Matched:False	1	n/a	1	False	False	n/a	n/a	n/a	n-backMarkers
420.087503	0.004000	dropped_samples	7667.944912	Dropped 1 samples	n/a	n/a	n/a	n/a	n/a	n/a	n/a	1	UoHDataOffsetStream
420.489047	1.701006	nback_1	7668.346456	Steps:1 KeyPress:False Matched:False	1	n/a	1	False	False	n/a	n/a	n/a	n-backMarkers
422.123639	0.012000	dropped_samples	7669.981047	Dropped 3 samples	n/a	n/a	n/a	n/a	n/a	n/a	n/a	3	UoHDataOffsetStream
422.189569	1.701006	nback_1	7670.046978	Steps:1 KeyPress:True Matched:False	0	n/a	1	True	False	n/a	n/a	n/a	n-backMarkers
423.890340	1.701006	nback_1	7671.747749	Steps:1 KeyPress:False Matched:True	0	n/a	1	False	True	n/a	n/a	n/a	n-backMarkers
425.591255	1.701006	nback_1	7673.448664	Steps:1 KeyPress:False Matched:False	1	n/a	1	False	False	n/a	n/a	n/a	n-backMarkers
425.653924	0.004000	dropped_samples	7673.511333	Dropped 1 samples	n/a	n/a	n/a	n/a	n/a	n/a	n/a	1	UoHDataOffsetStream
427.292834	1.701006	nback_1	7675.150242	Steps:1 KeyPress:True Matched:False	0	n/a	1	True	False	n/a	n/a	n/a	n-backMarkers
428.994460	1.701006	nback_1	7676.851869	Steps:1 KeyPress:False Matched:False	1	n/a	1	False	False	n/a	n/a	n/a	n-backMarkers
430.695420	1.701006	nback_1	7678.552829	Steps:1 KeyPress:True Matched:False	0	n/a	1	True	False	n/a	n/a	n/a	n-backMarkers
432.396452	1.701006	nback_1	7680.253861	Steps:1 KeyPress:False Matched:True	0	n/a	1	False	True	n/a	n/a	n/a	n-backMarkers
434.097151	1.701006	nback_1	7681.954559	Steps:1 KeyPress:False Matched:False	1	n/a	1	False	False	n/a	n/a	n/a	n-backMarkers
435.798076	1.701006	nback_1	7683.655485	Steps:1 KeyPress:True Matched:False	0	n/a	1	True	False	n/a	n/a	n/a	n-backMarkers
437.498442	1.701006	nback_1	7685.355851	Steps:1 KeyPress:False Matched:False	1	n/a	1	False	False	n/a	n/a	n/a	n-backMarkers
439.200176	1.701006	nback_1	7687.057585	Steps:1 KeyPress:True Matched:False	0	n/a	1	True	False	n/a	n/a	n/a	n-backMarkers
439.311177	0.004000	dropped_samples	7687.168586	Dropped 1 samples	n/a	n/a	n/a	n/a	n/a	n/a	n/a	1	UoHDataOffsetStream
439.384482	0.004000	dropped_samples	7687.241891	Dropped 1 samples	n/a	n/a	n/a	n/a	n/a	n/a	n/a	1	UoHDataOffsetStream
440.901036	1.701006	nback_1	7688.758445	Steps:1 KeyPress:False Matched:False	1	n/a	1	False	False	n/a	n/a	n/a	n-backMarkers
442.333707	0.004000	dropped_samples	7690.191116	Dropped 1 samples	n/a	n/a	n/a	n/a	n/a	n/a	n/a	1	UoHDataOffsetStream
442.601805	1.701006	nback_1	7690.459214	Steps:1 KeyPress:True Matched:False	0	n/a	1	True	False	n/a	n/a	n/a	n-backMarkers
443.608072	0.004000	dropped_samples	7691.465480	Dropped 1 samples	n/a	n/a	n/a	n/a	n/a	n/a	n/a	1	UoHDataOffsetStream
450.278041	0.004000	dropped_samples	7698.135450	Dropped 1 samples	n/a	n/a	n/a	n/a	n/a	n/a	n/a	1	UoHDataOffsetStream
450.639339	0.004000	dropped_samples	7698.496748	Dropped 1 samples	n/a	n/a	n/a	n/a	n/a	n/a	n/a	1	UoHDataOffsetStream
451.317468	1.701006	nback_2	7699.174876	Steps:2 KeyPress:False Matched:False	1	n/a	2	False	False	n/a	n/a	n/a	n-backMarkers
452.319041	0.012000	dropped_samples	7700.176450	Dropped 3 samples	n/a	n/a	n/a	n/a	n/a	n/a	n/a	3	UoHDataOffsetStream
453.018304	1.701006	nback_2	7700.875713	Steps:2 KeyPress:False Matched:False	1	n/a	2	False	False	n/a	n/a	n/a	n-backMarkers
453.061228	0.004000	dropped_samples	7700.918637	Dropped 1 samples	n/a	n/a	n/a	n/a	n/a	n/a	n/a	1	UoHDataOffsetStream
454.718352	1.701006	nback_2	7702.575761	Steps:2 KeyPress:False Matched:False	1	n/a	2	False	False	n/a	n/a	n/a	n-backMarkers
456.419495	1.701006	nback_2	7704.276904	Steps:2 KeyPress:True Matched:False	0	n/a	2	True	False	n/a	n/a	n/a	n-backMarkers
456.469478	0.004000	dropped_samples	7704.326887	Dropped 1 samples	n/a	n/a	n/a	n/a	n/a	n/a	n/a	1	UoHDataOffsetStream
458.007728	0.004000	dropped_samples	7705.865137	Dropped 1 samples	n/a	n/a	n/a	n/a	n/a	n/a	n/a	1	UoHDataOffsetStream
458.119762	1.701006	nback_2	7705.977171	Steps:2 KeyPress:False Matched:False	1	n/a	2	False	False	n/a	n/a	n/a	n-backMarkers
459.565178	0.008000	dropped_samples	7707.422586	Dropped 2 samples	n/a	n/a	n/a	n/a	n/a	n/a	n/a	2	UoHDataOffsetStream
459.821308	1.701006	nback_2	7707.678716	Steps:2 KeyPress:False Matched:False	1	n/a	2	False	False	n/a	n/a	n/a	n-backMarkers
461.269226	0.012000	dropped_samples	7709.126635	Dropped 3 samples	n/a	n/a	n/a	n/a	n/a	n/a	n/a	3	UoHDataOffsetStream
461.522472	1.701006	nback_2	7709.379881	Steps:2 KeyPress:True Matched:False	0	n/a	2	True	False	n/a	n/a	n/a	n-backMarkers
463.223645	1.701006	nback_2	7711.081054	Steps:2 KeyPress:False Matched:False	1	n/a	2	False	False	n/a	n/a	n/a	n-backMarkers
464.223634	0.004000	dropped_samples	7712.081043	Dropped 1 samples	n/a	n/a	n/a	n/a	n/a	n/a	n/a	1	UoHDataOffsetStream
464.923478	1.701006	nback_2	7712.780887	Steps:2 KeyPress:False Matched:False	1	n/a	2	False	False	n/a	n/a	n/a	n-backMarkers
466.624953	1.701006	nback_2	7714.482362	Steps:2 KeyPress:True Matched:False	0	n/a	2	True	False	n/a	n/a	n/a	n-backMarkers
468.326124	1.701006	nback_2	7716.183532	Steps:2 KeyPress:False Matched:False	1	n/a	2	False	False	n/a	n/a	n/a	n-backMarkers
470.028429	1.701006	nback_2	7717.885837	Steps:2 KeyPress:True Matched:False	0	n/a	2	True	False	n/a	n/a	n/a	n-backMarkers
471.729286	1.701006	nback_2	7719.586695	Steps:2 KeyPress:True Matched:False	0	n/a	2	True	False	n/a	n/a	n/a	n-backMarkers
473.430680	1.701006	nback_2	7721.288089	Steps:2 KeyPress:True Matched:False	0	n/a	2	True	False	n/a	n/a	n/a	n-backMarkers
475.132016	1.701006	nback_2	7722.989424	Steps:2 KeyPress:False Matched:True	0	n/a	2	False	True	n/a	n/a	n/a	n-backMarkers
476.833609	1.701006	nback_2	7724.691018	Steps:2 KeyPress:True Matched:False	0	n/a	2	True	False	n/a	n/a	n/a	n-backMarkers
478.168746	0.004000	dropped_samples	7726.026155	Dropped 1 samples	n/a	n/a	n/a	n/a	n/a	n/a	n/a	1	UoHDataOffsetStream
478.534407	1.701006	nback_2	7726.391816	Steps:2 KeyPress:True Matched:True	1	n/a	2	True	True	n/a	n/a	n/a	n-backMarkers
480.235902	1.701006	nback_2	7728.093310	Steps:2 KeyPress:False Matched:False	1	n/a	2	False	False	n/a	n/a	n/a	n-backMarkers
481.936838	1.701006	nback_2	7729.794246	Steps:2 KeyPress:False Matched:False	1	n/a	2	False	False	n/a	n/a	n/a	n-backMarkers
482.031018	0.004000	dropped_samples	7729.888427	Dropped 1 samples	n/a	n/a	n/a	n/a	n/a	n/a	n/a	1	UoHDataOffsetStream
482.724395	0.004000	dropped_samples	7730.581804	Dropped 1 samples	n/a	n/a	n/a	n/a	n/a	n/a	n/a	1	UoHDataOffsetStream
483.638350	1.701006	nback_2	7731.495759	Steps:2 KeyPress:True Matched:False	0	n/a	2	True	False	n/a	n/a	n/a	n-backMarkers
485.338446	1.701006	nback_2	7733.195854	Steps:2 KeyPress:False Matched:False	1	n/a	2	False	False	n/a	n/a	n/a	n-backMarkers
485.678632	0.004000	dropped_samples	7733.536041	Dropped 1 samples	n/a	n/a	n/a	n/a	n/a	n/a	n/a	1	UoHDataOffsetStream
487.039046	1.701006	nback_2	7734.896455	Steps:2 KeyPress:False Matched:False	1	n/a	2	False	False	n/a	n/a	n/a	n-backMarkers
487.812324	0.004000	dropped_samples	7735.669733	Dropped 1 samples	n/a	n/a	n/a	n/a	n/a	n/a	n/a	1	UoHDataOffsetStream
488.740569	1.701006	nback_2	7736.597978	Steps:2 KeyPress:True Matched:False	0	n/a	2	True	False	n/a	n/a	n/a	n-backMarkers
488.774240	0.004000	dropped_samples	7736.631649	Dropped 1 samples	n/a	n/a	n/a	n/a	n/a	n/a	n/a	1	UoHDataOffsetStream
490.441342	1.701006	nback_2	7738.298751	Steps:2 KeyPress:False Matched:True	0	n/a	2	False	True	n/a	n/a	n/a	n-backMarkers
490.551563	0.004000	dropped_samples	7738.408971	Dropped 1 samples	n/a	n/a	n/a	n/a	n/a	n/a	n/a	1	UoHDataOffsetStream
490.839676	0.004000	dropped_samples	7738.697084	Dropped 1 samples	n/a	n/a	n/a	n/a	n/a	n/a	n/a	1	UoHDataOffsetStream
491.200989	0.004000	dropped_samples	7739.058398	Dropped 1 samples	n/a	n/a	n/a	n/a	n/a	n/a	n/a	1	UoHDataOffsetStream
491.606319	0.008000	dropped_samples	7739.463728	Dropped 2 samples	n/a	n/a	n/a	n/a	n/a	n/a	n/a	2	UoHDataOffsetStream
492.142490	1.701006	nback_2	7739.999899	Steps:2 KeyPress:False Matched:False	1	n/a	2	False	False	n/a	n/a	n/a	n-backMarkers
493.844332	1.701006	nback_2	7741.701740	Steps:2 KeyPress:False Matched:False	1	n/a	2	False	False	n/a	n/a	n/a	n-backMarkers
495.545612	1.701006	nback_2	7743.403020	Steps:2 KeyPress:True Matched:False	0	n/a	2	True	False	n/a	n/a	n/a	n-backMarkers
496.645386	0.004000	dropped_samples	7744.502795	Dropped 1 samples	n/a	n/a	n/a	n/a	n/a	n/a	n/a	1	UoHDataOffsetStream
496.718613	0.004000	dropped_samples	7744.576022	Dropped 1 samples	n/a	n/a	n/a	n/a	n/a	n/a	n/a	1	UoHDataOffsetStream
497.247528	1.701006	nback_2	7745.104937	Steps:2 KeyPress:False Matched:True	0	n/a	2	False	True	n/a	n/a	n/a	n-backMarkers
498.948440	1.701006	nback_2	7746.805848	Steps:2 KeyPress:False Matched:False	1	n/a	2	False	False	n/a	n/a	n/a	n-backMarkers
500.649281	1.701006	nback_2	7748.506690	Steps:2 KeyPress:False Matched:False	1	n/a	2	False	False	n/a	n/a	n/a	n-backMarkers
502.350221	1.701006	nback_2	7750.207630	Steps:2 KeyPress:True Matched:False	0	n/a	2	True	False	n/a	n/a	n/a	n-backMarkers
504.051802	1.701006	nback_2	7751.909211	Steps:2 KeyPress:False Matched:False	1	n/a	2	False	False	n/a	n/a	n/a	n-backMarkers
504.111227	0.004000	dropped_samples	7751.968636	Dropped 1 samples	n/a	n/a	n/a	n/a	n/a	n/a	n/a	1	UoHDataOffsetStream
504.350571	0.004000	dropped_samples	7752.207979	Dropped 1 samples	n/a	n/a	n/a	n/a	n/a	n/a	n/a	1	UoHDataOffsetStream
504.828978	0.004000	dropped_samples	7752.686387	Dropped 1 samples	n/a	n/a	n/a	n/a	n/a	n/a	n/a	1	UoHDataOffsetStream
505.753215	1.701006	nback_2	7753.610624	Steps:2 KeyPress:False Matched:False	1	n/a	2	False	False	n/a	n/a	n/a	n-backMarkers
507.455636	1.701006	nback_2	7755.313045	Steps:2 KeyPress:True Matched:False	0	n/a	2	True	False	n/a	n/a	n/a	n-backMarkers
509.155474	1.701006	nback_2	7757.012883	Steps:2 KeyPress:False Matched:False	1	n/a	2	False	False	n/a	n/a	n/a	n-backMarkers
510.855958	1.701006	nback_2	7758.713367	Steps:2 KeyPress:False Matched:False	1	n/a	2	False	False	n/a	n/a	n/a	n-backMarkers
512.557188	1.701006	nback_2	7760.414596	Steps:2 KeyPress:True Matched:False	0	n/a	2	True	False	n/a	n/a	n/a	n-backMarkers
514.258382	1.701006	nback_2	7762.115791	Steps:2 KeyPress:False Matched:True	0	n/a	2	False	True	n/a	n/a	n/a	n-backMarkers
515.959904	1.701006	nback_2	7763.817312	Steps:2 KeyPress:False Matched:False	1	n/a	2	False	False	n/a	n/a	n/a	n-backMarkers
517.660225	1.701006	nback_2	7765.517634	Steps:2 KeyPress:False Matched:True	0	n/a	2	False	True	n/a	n/a	n/a	n-backMarkers
517.983302	0.004000	dropped_samples	7765.840711	Dropped 1 samples	n/a	n/a	n/a	n/a	n/a	n/a	n/a	1	UoHDataOffsetStream
519.360286	1.701006	nback_2	7767.217695	Steps:2 KeyPress:True Matched:True	1	n/a	2	True	True	n/a	n/a	n/a	n-backMarkers
521.061332	1.701006	nback_2	7768.918740	Steps:2 KeyPress:False Matched:False	1	n/a	2	False	False	n/a	n/a	n/a	n-backMarkers
522.763218	1.701006	nback_2	7770.620627	Steps:2 KeyPress:False Matched:False	1	n/a	2	False	False	n/a	n/a	n/a	n-backMarkers
523.984303	0.004000	dropped_samples	7771.841712	Dropped 1 samples	n/a	n/a	n/a	n/a	n/a	n/a	n/a	1	UoHDataOffsetStream
524.464555	1.701006	nback_2	7772.321963	Steps:2 KeyPress:False Matched:True	0	n/a	2	False	True	n/a	n/a	n/a	n-backMarkers
526.165501	1.701006	nback_2	7774.022910	Steps:2 KeyPress:False Matched:False	1	n/a	2	False	False	n/a	n/a	n/a	n-backMarkers
527.866468	1.701006	nback_2	7775.723877	Steps:2 KeyPress:False Matched:False	1	n/a	2	False	False	n/a	n/a	n/a	n-backMarkers
529.567546	1.701006	nback_2	7777.424955	Steps:2 KeyPress:True Matched:False	0	n/a	2	True	False	n/a	n/a	n/a	n-backMarkers
531.268347	1.701006	nback_2	7779.125756	Steps:2 KeyPress:True Matched:False	0	n/a	2	True	False	n/a	n/a	n/a	n-backMarkers
532.968662	1.701006	nback_2	7780.826071	Steps:2 KeyPress:False Matched:True	0	n/a	2	False	True	n/a	n/a	n/a	n-backMarkers
534.669325	1.701006	nback_2	7782.526734	Steps:2 KeyPress:False Matched:False	1	n/a	2	False	False	n/a	n/a	n/a	n-backMarkers
536.370648	1.701006	nback_2	7784.228057	Steps:2 KeyPress:False Matched:False	1	n/a	2	False	False	n/a	n/a	n/a	n-backMarkers
538.072786	1.701006	nback_2	7785.930194	Steps:2 KeyPress:False Matched:False	1	n/a	2	False	False	n/a	n/a	n/a	n-backMarkers
538.383781	0.004000	dropped_samples	7786.241190	Dropped 1 samples	n/a	n/a	n/a	n/a	n/a	n/a	n/a	1	UoHDataOffsetStream
538.911191	0.004000	dropped_samples	7786.768600	Dropped 1 samples	n/a	n/a	n/a	n/a	n/a	n/a	n/a	1	UoHDataOffsetStream
539.774162	1.701006	nback_2	7787.631571	Steps:2 KeyPress:True Matched:False	0	n/a	2	True	False	n/a	n/a	n/a	n-backMarkers
541.025384	0.004000	dropped_samples	7788.882793	Dropped 1 samples	n/a	n/a	n/a	n/a	n/a	n/a	n/a	1	UoHDataOffsetStream
541.476522	1.701006	nback_2	7789.333931	Steps:2 KeyPress:False Matched:True	0	n/a	2	False	True	n/a	n/a	n/a	n-backMarkers
541.889696	0.004000	dropped_samples	7789.747104	Dropped 1 samples	n/a	n/a	n/a	n/a	n/a	n/a	n/a	1	UoHDataOffsetStream
543.177366	1.701006	nback_2	7791.034775	Steps:2 KeyPress:False Matched:False	1	n/a	2	False	False	n/a	n/a	n/a	n-backMarkers
544.878346	1.701006	nback_2	7792.735755	Steps:2 KeyPress:False Matched:True	0	n/a	2	False	True	n/a	n/a	n/a	n-backMarkers
546.579164	1.701006	nback_2	7794.436573	Steps:2 KeyPress:False Matched:True	0	n/a	2	False	True	n/a	n/a	n/a	n-backMarkers
548.280895	1.701006	nback_2	7796.138304	Steps:2 KeyPress:True Matched:False	0	n/a	2	True	False	n/a	n/a	n/a	n-backMarkers
549.926878	0.004000	dropped_samples	7797.784286	Dropped 1 samples	n/a	n/a	n/a	n/a	n/a	n/a	n/a	1	UoHDataOffsetStream
549.982242	1.701006	nback_2	7797.839651	Steps:2 KeyPress:False Matched:False	1	n/a	2	False	False	n/a	n/a	n/a	n-backMarkers
551.683321	1.701006	nback_2	7799.540730	Steps:2 KeyPress:False Matched:False	1	n/a	2	False	False	n/a	n/a	n/a	n-backMarkers
553.383417	1.701006	nback_2	7801.240825	Steps:2 KeyPress:True Matched:False	0	n/a	2	True	False	n/a	n/a	n/a	n-backMarkers
555.039093	0.004000	dropped_samples	7802.896502	Dropped 1 samples	n/a	n/a	n/a	n/a	n/a	n/a	n/a	1	UoHDataOffsetStream
555.085480	1.701006	nback_2	7802.942889	Steps:2 KeyPress:False Matched:False	1	n/a	2	False	False	n/a	n/a	n/a	n-backMarkers
555.615359	0.004000	dropped_samples	7803.472768	Dropped 1 samples	n/a	n/a	n/a	n/a	n/a	n/a	n/a	1	UoHDataOffsetStream
556.357467	0.004000	dropped_samples	7804.214876	Dropped 1 samples	n/a	n/a	n/a	n/a	n/a	n/a	n/a	1	UoHDataOffsetStream
556.787378	1.701006	nback_2	7804.644786	Steps:2 KeyPress:False Matched:False	1	n/a	2	False	False	n/a	n/a	n/a	n-backMarkers
558.489236	1.701006	nback_2	7806.346645	Steps:2 KeyPress:True Matched:False	0	n/a	2	True	False	n/a	n/a	n/a	n-backMarkers
560.189301	1.701006	nback_2	7808.046710	Steps:2 KeyPress:False Matched:True	0	n/a	2	False	True	n/a	n/a	n/a	n-backMarkers
560.297856	0.004000	dropped_samples	7808.155264	Dropped 1 samples	n/a	n/a	n/a	n/a	n/a	n/a	n/a	1	UoHDataOffsetStream
561.782251	0.104000	dropped_samples	7809.639660	Dropped 26 samples	n/a	n/a	n/a	n/a	n/a	n/a	n/a	26	UoHDataOffsetStream
561.889997	1.701006	nback_2	7809.747405	Steps:2 KeyPress:False Matched:False	1	n/a	2	False	False	n/a	n/a	n/a	n-backMarkers
563.590368	1.701006	nback_2	7811.447777	Steps:2 KeyPress:False Matched:True	0	n/a	2	False	True	n/a	n/a	n/a	n-backMarkers
563.920967	0.004000	dropped_samples	7811.778376	Dropped 1 samples	n/a	n/a	n/a	n/a	n/a	n/a	n/a	1	UoHDataOffsetStream
565.291356	1.701006	nback_2	7813.148764	Steps:2 KeyPress:False Matched:False	1	n/a	2	False	False	n/a	n/a	n/a	n-backMarkers
565.503124	0.012000	dropped_samples	7813.360533	Dropped 3 samples	n/a	n/a	n/a	n/a	n/a	n/a	n/a	3	UoHDataOffsetStream
566.993195	1.701006	nback_2	7814.850604	Steps:2 KeyPress:False Matched:False	1	n/a	2	False	False	n/a	n/a	n/a	n-backMarkers
568.693859	1.701006	nback_2	7816.551268	Steps:2 KeyPress:False Matched:False	1	n/a	2	False	False	n/a	n/a	n/a	n-backMarkers
570.395130	1.701006	nback_2	7818.252539	Steps:2 KeyPress:True Matched:False	0	n/a	2	True	False	n/a	n/a	n/a	n-backMarkers
571.865353	0.004000	dropped_samples	7819.722762	Dropped 1 samples	n/a	n/a	n/a	n/a	n/a	n/a	n/a	1	UoHDataOffsetStream
572.096211	1.701006	nback_2	7819.953620	Steps:2 KeyPress:False Matched:True	0	n/a	2	False	True	n/a	n/a	n/a	n-backMarkers
572.773537	0.012000	dropped_samples	7820.630946	Dropped 3 samples	n/a	n/a	n/a	n/a	n/a	n/a	n/a	3	UoHDataOffsetStream
573.796300	1.701006	nback_2	7821.653709	Steps:2 KeyPress:False Matched:False	1	n/a	2	False	False	n/a	n/a	n/a	n-backMarkers
575.341925	0.004000	dropped_samples	7823.199334	Dropped 1 samples	n/a	n/a	n/a	n/a	n/a	n/a	n/a	1	UoHDataOffsetStream
575.496837	1.701006	nback_2	7823.354246	Steps:2 KeyPress:False Matched:False	1	n/a	2	False	False	n/a	n/a	n/a	n-backMarkers
576.137886	0.004000	dropped_samples	7823.995295	Dropped 1 samples	n/a	n/a	n/a	n/a	n/a	n/a	n/a	1	UoHDataOffsetStream
576.567483	0.004000	dropped_samples	7824.424892	Dropped 1 samples	n/a	n/a	n/a	n/a	n/a	n/a	n/a	1	UoHDataOffsetStream
577.197433	1.701006	nback_2	7825.054841	Steps:2 KeyPress:True Matched:False	0	n/a	2	True	False	n/a	n/a	n/a	n-backMarkers
578.149526	0.004000	dropped_samples	7826.006934	Dropped 1 samples	n/a	n/a	n/a	n/a	n/a	n/a	n/a	1	UoHDataOffsetStream
578.899574	1.701006	nback_2	7826.756983	Steps:2 KeyPress:False Matched:False	1	n/a	2	False	False	n/a	n/a	n/a	n-backMarkers
580.600642	1.701006	nback_2	7828.458051	Steps:2 KeyPress:False Matched:False	1	n/a	2	False	False	n/a	n/a	n/a	n-backMarkers
582.301035	1.701006	nback_2	7830.158444	Steps:2 KeyPress:True Matched:False	0	n/a	2	True	False	n/a	n/a	n/a	n-backMarkers
584.002350	1.701006	nback_2	7831.859759	Steps:2 KeyPress:False Matched:True	0	n/a	2	False	True	n/a	n/a	n/a	n-backMarkers
585.703495	1.701006	nback_2	7833.560904	Steps:2 KeyPress:False Matched:False	1	n/a	2	False	False	n/a	n/a	n/a	n-backMarkers
585.805871	0.004000	dropped_samples	7833.663279	Dropped 1 samples	n/a	n/a	n/a	n/a	n/a	n/a	n/a	1	UoHDataOffsetStream
587.404840	1.701006	nback_2	7835.262249	Steps:2 KeyPress:False Matched:False	1	n/a	2	False	False	n/a	n/a	n/a	n-backMarkers
589.106089	1.701006	nback_2	7836.963498	Steps:2 KeyPress:True Matched:False	0	n/a	2	True	False	n/a	n/a	n/a	n-backMarkers
590.808376	1.701006	nback_2	7838.665785	Steps:2 KeyPress:False Matched:False	1	n/a	2	False	False	n/a	n/a	n/a	n-backMarkers
591.518783	0.004000	dropped_samples	7839.376192	Dropped 1 samples	n/a	n/a	n/a	n/a	n/a	n/a	n/a	1	UoHDataOffsetStream
592.509300	1.701006	nback_2	7840.366709	Steps:2 KeyPress:False Matched:False	1	n/a	2	False	False	n/a	n/a	n/a	n-backMarkers
593.008384	0.004000	dropped_samples	7840.865793	Dropped 1 samples	n/a	n/a	n/a	n/a	n/a	n/a	n/a	1	UoHDataOffsetStream
594.210453	1.701006	nback_2	7842.067862	Steps:2 KeyPress:True Matched:False	0	n/a	2	True	False	n/a	n/a	n/a	n-backMarkers
595.912328	1.701006	nback_2	7843.769737	Steps:2 KeyPress:False Matched:True	0	n/a	2	False	True	n/a	n/a	n/a	n-backMarkers
597.613619	1.701006	nback_2	7845.471028	Steps:2 KeyPress:False Matched:False	1	n/a	2	False	False	n/a	n/a	n/a	n-backMarkers
599.313731	1.701006	nback_2	7847.171140	Steps:2 KeyPress:False Matched:False	1	n/a	2	False	False	n/a	n/a	n/a	n-backMarkers
601.014038	1.701006	nback_2	7848.871447	Steps:2 KeyPress:True Matched:False	0	n/a	2	True	False	n/a	n/a	n/a	n-backMarkers
601.865521	0.004000	dropped_samples	7849.722930	Dropped 1 samples	n/a	n/a	n/a	n/a	n/a	n/a	n/a	1	UoHDataOffsetStream
602.714174	1.701006	nback_2	7850.571583	Steps:2 KeyPress:False Matched:False	1	n/a	2	False	False	n/a	n/a	n/a	n-backMarkers
604.415339	1.701006	nback_2	7852.272747	Steps:2 KeyPress:False Matched:False	1	n/a	2	False	False	n/a	n/a	n/a	n-backMarkers
606.116297	1.701006	nback_2	7853.973706	Steps:2 KeyPress:True Matched:False	0	n/a	2	True	False	n/a	n/a	n/a	n-backMarkers
607.816846	1.701006	nback_2	7855.674255	Steps:2 KeyPress:False Matched:False	1	n/a	2	False	False	n/a	n/a	n/a	n-backMarkers
609.517441	1.701006	nback_2	7857.374850	Steps:2 KeyPress:False Matched:False	1	n/a	2	False	False	n/a	n/a	n/a	n-backMarkers
611.218530	1.701006	nback_2	7859.075939	Steps:2 KeyPress:True Matched:False	0	n/a	2	True	False	n/a	n/a	n/a	n-backMarkers
611.826377	0.004000	dropped_samples	7859.683786	Dropped 1 samples	n/a	n/a	n/a	n/a	n/a	n/a	n/a	1	UoHDataOffsetStream
612.919483	1.701006	nback_2	7860.776892	Steps:2 KeyPress:False Matched:False	1	n/a	2	False	False	n/a	n/a	n/a	n-backMarkers
613.457417	0.004000	dropped_samples	7861.314826	Dropped 1 samples	n/a	n/a	n/a	n/a	n/a	n/a	n/a	1	UoHDataOffsetStream
614.620831	1.701006	nback_2	7862.478240	Steps:2 KeyPress:False Matched:False	1	n/a	2	False	False	n/a	n/a	n/a	n-backMarkers
614.990490	0.008000	dropped_samples	7862.847899	Dropped 2 samples	n/a	n/a	n/a	n/a	n/a	n/a	n/a	2	UoHDataOffsetStream
616.321307	1.701006	nback_2	7864.178716	Steps:2 KeyPress:True Matched:False	0	n/a	2	True	False	n/a	n/a	n/a	n-backMarkers
617.368415	0.004000	dropped_samples	7865.225824	Dropped 1 samples	n/a	n/a	n/a	n/a	n/a	n/a	n/a	1	UoHDataOffsetStream
618.022612	1.701006	nback_2	7865.880021	Steps:2 KeyPress:False Matched:True	0	n/a	2	False	True	n/a	n/a	n/a	n-backMarkers
619.697656	0.020000	dropped_samples	7867.555065	Dropped 5 samples	n/a	n/a	n/a	n/a	n/a	n/a	n/a	5	UoHDataOffsetStream
619.724333	1.701006	nback_2	7867.581742	Steps:2 KeyPress:False Matched:False	1	n/a	2	False	False	n/a	n/a	n/a	n-backMarkers
622.334282	0.012000	dropped_samples	7870.191691	Dropped 3 samples	n/a	n/a	n/a	n/a	n/a	n/a	n/a	3	UoHDataOffsetStream
625.478879	0.024000	dropped_samples	7873.336288	Dropped 6 samples	n/a	n/a	n/a	n/a	n/a	n/a	n/a	6	UoHDataOffsetStream
628.432368	1.701006	nback_3	7876.289777	Steps:3 KeyPress:False Matched:False	1	n/a	3	False	False	n/a	n/a	n/a	n-backMarkers
630.132898	1.701006	nback_3	7877.990307	Steps:3 KeyPress:False Matched:False	1	n/a	3	False	False	n/a	n/a	n/a	n-backMarkers
631.834405	1.701006	nback_3	7879.691814	Steps:3 KeyPress:False Matched:False	1	n/a	3	False	False	n/a	n/a	n/a	n-backMarkers
633.535190	1.701006	nback_3	7881.392599	Steps:3 KeyPress:False Matched:False	1	n/a	3	False	False	n/a	n/a	n/a	n-backMarkers
635.235560	1.701006	nback_3	7883.092968	Steps:3 KeyPress:True Matched:False	0	n/a	3	True	False	n/a	n/a	n/a	n-backMarkers
636.494472	0.004000	dropped_samples	7884.351881	Dropped 1 samples	n/a	n/a	n/a	n/a	n/a	n/a	n/a	1	UoHDataOffsetStream
636.936252	1.701006	nback_3	7884.793661	Steps:3 KeyPress:False Matched:False	1	n/a	3	False	False	n/a	n/a	n/a	n-backMarkers
638.636224	1.701006	nback_3	7886.493633	Steps:3 KeyPress:False Matched:False	1	n/a	3	False	False	n/a	n/a	n/a	n-backMarkers
638.823555	0.008000	dropped_samples	7886.680964	Dropped 2 samples	n/a	n/a	n/a	n/a	n/a	n/a	n/a	2	UoHDataOffsetStream
639.062917	0.004000	dropped_samples	7886.920325	Dropped 1 samples	n/a	n/a	n/a	n/a	n/a	n/a	n/a	1	UoHDataOffsetStream
640.338163	1.701006	nback_3	7888.195572	Steps:3 KeyPress:False Matched:False	1	n/a	3	False	False	n/a	n/a	n/a	n-backMarkers
640.410486	0.004000	dropped_samples	7888.267895	Dropped 1 samples	n/a	n/a	n/a	n/a	n/a	n/a	n/a	1	UoHDataOffsetStream
640.503261	0.004000	dropped_samples	7888.360669	Dropped 1 samples	n/a	n/a	n/a	n/a	n/a	n/a	n/a	1	UoHDataOffsetStream
642.039388	1.701006	nback_3	7889.896797	Steps:3 KeyPress:True Matched:False	0	n/a	3	True	False	n/a	n/a	n/a	n-backMarkers
643.740227	1.701006	nback_3	7891.597636	Steps:3 KeyPress:False Matched:False	1	n/a	3	False	False	n/a	n/a	n/a	n-backMarkers
644.297176	0.004000	dropped_samples	7892.154585	Dropped 1 samples	n/a	n/a	n/a	n/a	n/a	n/a	n/a	1	UoHDataOffsetStream
645.440718	1.701006	nback_3	7893.298127	Steps:3 KeyPress:False Matched:False	1	n/a	3	False	False	n/a	n/a	n/a	n-backMarkers
645.928036	0.004000	dropped_samples	7893.785445	Dropped 1 samples	n/a	n/a	n/a	n/a	n/a	n/a	n/a	1	UoHDataOffsetStream
646.216123	0.004000	dropped_samples	7894.073531	Dropped 1 samples	n/a	n/a	n/a	n/a	n/a	n/a	n/a	1	UoHDataOffsetStream
646.528645	0.004000	dropped_samples	7894.386053	Dropped 1 samples	n/a	n/a	n/a	n/a	n/a	n/a	n/a	1	UoHDataOffsetStream
647.141284	1.701006	nback_3	7894.998693	Steps:3 KeyPress:False Matched:False	1	n/a	3	False	False	n/a	n/a	n/a	n-backMarkers
647.319639	0.004000	dropped_samples	7895.177048	Dropped 1 samples	n/a	n/a	n/a	n/a	n/a	n/a	n/a	1	UoHDataOffsetStream
648.841833	1.701006	nback_3	7896.699242	Steps:3 KeyPress:True Matched:False	0	n/a	3	True	False	n/a	n/a	n/a	n-backMarkers
649.409493	0.004000	dropped_samples	7897.266902	Dropped 1 samples	n/a	n/a	n/a	n/a	n/a	n/a	n/a	1	UoHDataOffsetStream
650.542437	1.701006	nback_3	7898.399846	Steps:3 KeyPress:False Matched:False	1	n/a	3	False	False	n/a	n/a	n/a	n-backMarkers
652.243580	1.701006	nback_3	7900.100989	Steps:3 KeyPress:True Matched:False	0	n/a	3	True	False	n/a	n/a	n/a	n-backMarkers
652.407571	0.004000	dropped_samples	7900.264980	Dropped 1 samples	n/a	n/a	n/a	n/a	n/a	n/a	n/a	1	UoHDataOffsetStream
653.943722	1.701006	nback_3	7901.801131	Steps:3 KeyPress:False Matched:False	1	n/a	3	False	False	n/a	n/a	n/a	n-backMarkers
655.644125	1.701006	nback_3	7903.501534	Steps:3 KeyPress:True Matched:False	0	n/a	3	True	False	n/a	n/a	n/a	n-backMarkers
656.728840	0.004000	dropped_samples	7904.586249	Dropped 1 samples	n/a	n/a	n/a	n/a	n/a	n/a	n/a	1	UoHDataOffsetStream
657.345138	1.701006	nback_3	7905.202547	Steps:3 KeyPress:False Matched:False	1	n/a	3	False	False	n/a	n/a	n/a	n-backMarkers
657.832423	0.004000	dropped_samples	7905.689831	Dropped 1 samples	n/a	n/a	n/a	n/a	n/a	n/a	n/a	1	UoHDataOffsetStream
659.046591	1.701006	nback_3	7906.904000	Steps:3 KeyPress:False Matched:False	1	n/a	3	False	False	n/a	n/a	n/a	n-backMarkers
660.748209	1.701006	nback_3	7908.605618	Steps:3 KeyPress:True Matched:False	0	n/a	3	True	False	n/a	n/a	n/a	n-backMarkers
661.792414	0.012000	dropped_samples	7909.649823	Dropped 3 samples	n/a	n/a	n/a	n/a	n/a	n/a	n/a	3	UoHDataOffsetStream
662.448329	1.701006	nback_3	7910.305737	Steps:3 KeyPress:True Matched:False	0	n/a	3	True	False	n/a	n/a	n/a	n-backMarkers
664.149335	1.701006	nback_3	7912.006744	Steps:3 KeyPress:False Matched:False	1	n/a	3	False	False	n/a	n/a	n/a	n-backMarkers
665.850850	1.701006	nback_3	7913.708259	Steps:3 KeyPress:False Matched:False	1	n/a	3	False	False	n/a	n/a	n/a	n-backMarkers
667.552394	1.701006	nback_3	7915.409803	Steps:3 KeyPress:False Matched:False	1	n/a	3	False	False	n/a	n/a	n/a	n-backMarkers
669.253470	1.701006	nback_3	7917.110878	Steps:3 KeyPress:True Matched:False	0	n/a	3	True	False	n/a	n/a	n/a	n-backMarkers
670.954796	1.701006	nback_3	7918.812205	Steps:3 KeyPress:False Matched:True	0	n/a	3	False	True	n/a	n/a	n/a	n-backMarkers
672.655414	1.701006	nback_3	7920.512823	Steps:3 KeyPress:False Matched:False	1	n/a	3	False	False	n/a	n/a	n/a	n-backMarkers
674.355834	1.701006	nback_3	7922.213243	Steps:3 KeyPress:False Matched:False	1	n/a	3	False	False	n/a	n/a	n/a	n-backMarkers
676.056766	1.701006	nback_3	7923.914175	Steps:3 KeyPress:False Matched:False	1	n/a	3	False	False	n/a	n/a	n/a	n-backMarkers
677.758258	1.701006	nback_3	7925.615666	Steps:3 KeyPress:True Matched:False	0	n/a	3	True	False	n/a	n/a	n/a	n-backMarkers
679.170383	0.004000	dropped_samples	7927.027792	Dropped 1 samples	n/a	n/a	n/a	n/a	n/a	n/a	n/a	1	UoHDataOffsetStream
679.459195	1.701006	nback_3	7927.316604	Steps:3 KeyPress:False Matched:True	0	n/a	3	False	True	n/a	n/a	n/a	n-backMarkers
681.160289	1.701006	nback_3	7929.017698	Steps:3 KeyPress:False Matched:False	1	n/a	3	False	False	n/a	n/a	n/a	n-backMarkers
682.862139	1.701006	nback_3	7930.719548	Steps:3 KeyPress:True Matched:False	0	n/a	3	True	False	n/a	n/a	n/a	n-backMarkers
684.023314	0.004000	dropped_samples	7931.880722	Dropped 1 samples	n/a	n/a	n/a	n/a	n/a	n/a	n/a	1	UoHDataOffsetStream
684.062996	0.012000	dropped_samples	7931.920405	Dropped 3 samples	n/a	n/a	n/a	n/a	n/a	n/a	n/a	3	UoHDataOffsetStream
684.233869	0.012000	dropped_samples	7932.091278	Dropped 3 samples	n/a	n/a	n/a	n/a	n/a	n/a	n/a	3	UoHDataOffsetStream
684.563366	1.701006	nback_3	7932.420774	Steps:3 KeyPress:False Matched:False	1	n/a	3	False	False	n/a	n/a	n/a	n-backMarkers
686.250424	0.012000	dropped_samples	7934.107833	Dropped 3 samples	n/a	n/a	n/a	n/a	n/a	n/a	n/a	3	UoHDataOffsetStream
686.263348	1.701006	nback_3	7934.120756	Steps:3 KeyPress:True Matched:False	0	n/a	3	True	False	n/a	n/a	n/a	n-backMarkers
687.965356	1.701006	nback_3	7935.822765	Steps:3 KeyPress:False Matched:False	1	n/a	3	False	False	n/a	n/a	n/a	n-backMarkers
689.666195	1.701006	nback_3	7937.523604	Steps:3 KeyPress:False Matched:False	1	n/a	3	False	False	n/a	n/a	n/a	n-backMarkers
691.368035	1.701006	nback_3	7939.225443	Steps:3 KeyPress:False Matched:False	1	n/a	3	False	False	n/a	n/a	n/a	n-backMarkers
693.068571	1.701006	nback_3	7940.925980	Steps:3 KeyPress:True Matched:False	0	n/a	3	True	False	n/a	n/a	n/a	n-backMarkers
694.770387	1.701006	nback_3	7942.627796	Steps:3 KeyPress:False Matched:False	1	n/a	3	False	False	n/a	n/a	n/a	n-backMarkers
696.472282	1.701006	nback_3	7944.329691	Steps:3 KeyPress:False Matched:False	1	n/a	3	False	False	n/a	n/a	n/a	n-backMarkers
697.168478	0.004000	dropped_samples	7945.025886	Dropped 1 samples	n/a	n/a	n/a	n/a	n/a	n/a	n/a	1	UoHDataOffsetStream
698.173255	1.701006	nback_3	7946.030664	Steps:3 KeyPress:False Matched:False	1	n/a	3	False	False	n/a	n/a	n/a	n-backMarkers
699.111876	0.004000	dropped_samples	7946.969285	Dropped 1 samples	n/a	n/a	n/a	n/a	n/a	n/a	n/a	1	UoHDataOffsetStream
699.873469	1.701006	nback_3	7947.730878	Steps:3 KeyPress:True Matched:False	0	n/a	3	True	False	n/a	n/a	n/a	n-backMarkers
701.575810	1.701006	nback_3	7949.433218	Steps:3 KeyPress:False Matched:False	1	n/a	3	False	False	n/a	n/a	n/a	n-backMarkers
703.275960	1.701006	nback_3	7951.133369	Steps:3 KeyPress:False Matched:False	1	n/a	3	False	False	n/a	n/a	n/a	n-backMarkers
704.975926	1.701006	nback_3	7952.833334	Steps:3 KeyPress:False Matched:False	1	n/a	3	False	False	n/a	n/a	n/a	n-backMarkers
706.675854	1.701006	nback_3	7954.533263	Steps:3 KeyPress:True Matched:False	0	n/a	3	True	False	n/a	n/a	n/a	n-backMarkers
708.377228	1.701006	nback_3	7956.234637	Steps:3 KeyPress:False Matched:True	0	n/a	3	False	True	n/a	n/a	n/a	n-backMarkers
710.078201	1.701006	nback_3	7957.935610	Steps:3 KeyPress:False Matched:False	1	n/a	3	False	False	n/a	n/a	n/a	n-backMarkers
711.779024	1.701006	nback_3	7959.636432	Steps:3 KeyPress:True Matched:False	0	n/a	3	True	False	n/a	n/a	n/a	n-backMarkers
713.480325	1.701006	nback_3	7961.337734	Steps:3 KeyPress:False Matched:True	0	n/a	3	False	True	n/a	n/a	n/a	n-backMarkers
715.181558	1.701006	nback_3	7963.038967	Steps:3 KeyPress:False Matched:True	0	n/a	3	False	True	n/a	n/a	n/a	n-backMarkers
715.552298	0.004000	dropped_samples	7963.409707	Dropped 1 samples	n/a	n/a	n/a	n/a	n/a	n/a	n/a	1	UoHDataOffsetStream
716.883493	1.701006	nback_3	7964.740902	Steps:3 KeyPress:False Matched:False	1	n/a	3	False	False	n/a	n/a	n/a	n-backMarkers
718.584313	1.701006	nback_3	7966.441722	Steps:3 KeyPress:True Matched:False	0	n/a	3	True	False	n/a	n/a	n/a	n-backMarkers
718.867773	0.004000	dropped_samples	7966.725182	Dropped 1 samples	n/a	n/a	n/a	n/a	n/a	n/a	n/a	1	UoHDataOffsetStream
720.285253	1.701006	nback_3	7968.142661	Steps:3 KeyPress:False Matched:False	1	n/a	3	False	False	n/a	n/a	n/a	n-backMarkers
721.588485	0.008000	dropped_samples	7969.445894	Dropped 2 samples	n/a	n/a	n/a	n/a	n/a	n/a	n/a	2	UoHDataOffsetStream
721.626529	0.052000	dropped_samples	7969.483937	Dropped 13 samples	n/a	n/a	n/a	n/a	n/a	n/a	n/a	13	UoHDataOffsetStream
721.985877	1.701006	nback_3	7969.843286	Steps:3 KeyPress:False Matched:True	0	n/a	3	False	True	n/a	n/a	n/a	n-backMarkers
723.686496	1.701006	nback_3	7971.543905	Steps:3 KeyPress:False Matched:False	1	n/a	3	False	False	n/a	n/a	n/a	n-backMarkers
725.387363	1.701006	nback_3	7973.244772	Steps:3 KeyPress:False Matched:False	1	n/a	3	False	False	n/a	n/a	n/a	n-backMarkers
727.088134	1.701006	nback_3	7974.945543	Steps:3 KeyPress:False Matched:False	1	n/a	3	False	False	n/a	n/a	n/a	n-backMarkers
727.383502	0.004000	dropped_samples	7975.240911	Dropped 1 samples	n/a	n/a	n/a	n/a	n/a	n/a	n/a	1	UoHDataOffsetStream
728.789050	1.701006	nback_3	7976.646459	Steps:3 KeyPress:True Matched:False	0	n/a	3	True	False	n/a	n/a	n/a	n-backMarkers
730.489411	1.701006	nback_3	7978.346820	Steps:3 KeyPress:False Matched:False	1	n/a	3	False	False	n/a	n/a	n/a	n-backMarkers
731.514282	0.004000	dropped_samples	7979.371691	Dropped 1 samples	n/a	n/a	n/a	n/a	n/a	n/a	n/a	1	UoHDataOffsetStream
732.190297	1.701006	nback_3	7980.047706	Steps:3 KeyPress:False Matched:False	1	n/a	3	False	False	n/a	n/a	n/a	n-backMarkers
733.891389	1.701006	nback_3	7981.748798	Steps:3 KeyPress:False Matched:False	1	n/a	3	False	False	n/a	n/a	n/a	n-backMarkers
735.592420	1.701006	nback_3	7983.449829	Steps:3 KeyPress:True Matched:False	0	n/a	3	True	False	n/a	n/a	n/a	n-backMarkers
736.289703	0.004000	dropped_samples	7984.147112	Dropped 1 samples	n/a	n/a	n/a	n/a	n/a	n/a	n/a	1	UoHDataOffsetStream
737.294274	1.701006	nback_3	7985.151683	Steps:3 KeyPress:False Matched:True	0	n/a	3	False	True	n/a	n/a	n/a	n-backMarkers
738.858133	0.008000	dropped_samples	7986.715542	Dropped 2 samples	n/a	n/a	n/a	n/a	n/a	n/a	n/a	2	UoHDataOffsetStream
738.995623	1.701006	nback_3	7986.853031	Steps:3 KeyPress:False Matched:False	1	n/a	3	False	False	n/a	n/a	n/a	n-backMarkers
740.696393	1.701006	nback_3	7988.553802	Steps:3 KeyPress:False Matched:False	1	n/a	3	False	False	n/a	n/a	n/a	n-backMarkers
742.397321	1.701006	nback_3	7990.254730	Steps:3 KeyPress:False Matched:False	1	n/a	3	False	False	n/a	n/a	n/a	n-backMarkers
744.097636	1.701006	nback_3	7991.955045	Steps:3 KeyPress:True Matched:False	0	n/a	3	True	False	n/a	n/a	n/a	n-backMarkers
745.798431	1.701006	nback_3	7993.655840	Steps:3 KeyPress:False Matched:False	1	n/a	3	False	False	n/a	n/a	n/a	n-backMarkers
747.499221	1.701006	nback_3	7995.356629	Steps:3 KeyPress:False Matched:False	1	n/a	3	False	False	n/a	n/a	n/a	n-backMarkers
749.058303	0.004000	dropped_samples	7996.915712	Dropped 1 samples	n/a	n/a	n/a	n/a	n/a	n/a	n/a	1	UoHDataOffsetStream
749.200216	1.701006	nback_3	7997.057625	Steps:3 KeyPress:False Matched:False	1	n/a	3	False	False	n/a	n/a	n/a	n-backMarkers
749.487992	0.012000	dropped_samples	7997.345401	Dropped 3 samples	n/a	n/a	n/a	n/a	n/a	n/a	n/a	3	UoHDataOffsetStream
750.901261	1.701006	nback_3	7998.758670	Steps:3 KeyPress:True Matched:False	0	n/a	3	True	False	n/a	n/a	n/a	n-backMarkers
752.603466	1.701006	nback_3	8000.460875	Steps:3 KeyPress:False Matched:True	0	n/a	3	False	True	n/a	n/a	n/a	n-backMarkers
753.018246	0.004000	dropped_samples	8000.875655	Dropped 1 samples	n/a	n/a	n/a	n/a	n/a	n/a	n/a	1	UoHDataOffsetStream
754.304308	1.701006	nback_3	8002.161716	Steps:3 KeyPress:False Matched:False	1	n/a	3	False	False	n/a	n/a	n/a	n-backMarkers
756.004357	1.701006	nback_3	8003.861766	Steps:3 KeyPress:False Matched:False	1	n/a	3	False	False	n/a	n/a	n/a	n-backMarkers
756.641312	0.004000	dropped_samples	8004.498721	Dropped 1 samples	n/a	n/a	n/a	n/a	n/a	n/a	n/a	1	UoHDataOffsetStream
757.705325	1.701006	nback_3	8005.562734	Steps:3 KeyPress:False Matched:False	1	n/a	3	False	False	n/a	n/a	n/a	n-backMarkers
758.584682	0.004000	dropped_samples	8006.442091	Dropped 1 samples	n/a	n/a	n/a	n/a	n/a	n/a	n/a	1	UoHDataOffsetStream
759.068084	0.004000	dropped_samples	8006.925493	Dropped 1 samples	n/a	n/a	n/a	n/a	n/a	n/a	n/a	1	UoHDataOffsetStream
759.406417	1.701006	nback_3	8007.263826	Steps:3 KeyPress:False Matched:False	1	n/a	3	False	False	n/a	n/a	n/a	n-backMarkers
761.107441	1.701006	nback_3	8008.964850	Steps:3 KeyPress:False Matched:False	1	n/a	3	False	False	n/a	n/a	n/a	n-backMarkers
762.808752	1.701006	nback_3	8010.666161	Steps:3 KeyPress:False Matched:True	0	n/a	3	False	True	n/a	n/a	n/a	n-backMarkers
764.509239	1.701006	nback_3	8012.366648	Steps:3 KeyPress:False Matched:False	1	n/a	3	False	False	n/a	n/a	n/a	n-backMarkers
765.401075	0.004000	dropped_samples	8013.258484	Dropped 1 samples	n/a	n/a	n/a	n/a	n/a	n/a	n/a	1	UoHDataOffsetStream
765.738026	0.004000	dropped_samples	8013.595434	Dropped 1 samples	n/a	n/a	n/a	n/a	n/a	n/a	n/a	1	UoHDataOffsetStream
766.001816	0.008000	dropped_samples	8013.859224	Dropped 2 samples	n/a	n/a	n/a	n/a	n/a	n/a	n/a	2	UoHDataOffsetStream
766.210400	1.701006	nback_3	8014.067808	Steps:3 KeyPress:False Matched:False	1	n/a	3	False	False	n/a	n/a	n/a	n-backMarkers
766.963637	0.004000	dropped_samples	8014.821046	Dropped 1 samples	n/a	n/a	n/a	n/a	n/a	n/a	n/a	1	UoHDataOffsetStream
767.705865	0.004000	dropped_samples	8015.563274	Dropped 1 samples	n/a	n/a	n/a	n/a	n/a	n/a	n/a	1	UoHDataOffsetStream
767.911850	1.701006	nback_3	8015.769259	Steps:3 KeyPress:False Matched:False	1	n/a	3	False	False	n/a	n/a	n/a	n-backMarkers
769.611744	1.701006	nback_3	8017.469153	Steps:3 KeyPress:False Matched:False	1	n/a	3	False	False	n/a	n/a	n/a	n-backMarkers
771.312194	1.701006	nback_3	8019.169603	Steps:3 KeyPress:False Matched:False	1	n/a	3	False	False	n/a	n/a	n/a	n-backMarkers
771.451017	0.004000	dropped_samples	8019.308426	Dropped 1 samples	n/a	n/a	n/a	n/a	n/a	n/a	n/a	1	UoHDataOffsetStream
772.603368	0.004000	dropped_samples	8020.460777	Dropped 1 samples	n/a	n/a	n/a	n/a	n/a	n/a	n/a	1	UoHDataOffsetStream
773.012500	1.701006	nback_3	8020.869909	Steps:3 KeyPress:False Matched:True	0	n/a	3	False	True	n/a	n/a	n/a	n-backMarkers
774.713508	1.701006	nback_3	8022.570917	Steps:3 KeyPress:False Matched:False	1	n/a	3	False	False	n/a	n/a	n/a	n-backMarkers
775.484213	0.004000	dropped_samples	8023.341622	Dropped 1 samples	n/a	n/a	n/a	n/a	n/a	n/a	n/a	1	UoHDataOffsetStream
775.747820	0.004000	dropped_samples	8023.605229	Dropped 1 samples	n/a	n/a	n/a	n/a	n/a	n/a	n/a	1	UoHDataOffsetStream
776.415495	1.701006	nback_3	8024.272904	Steps:3 KeyPress:False Matched:False	1	n/a	3	False	False	n/a	n/a	n/a	n-backMarkers
778.116411	1.701006	nback_3	8025.973820	Steps:3 KeyPress:False Matched:False	1	n/a	3	False	False	n/a	n/a	n/a	n-backMarkers
779.707892	0.004000	dropped_samples	8027.565301	Dropped 1 samples	n/a	n/a	n/a	n/a	n/a	n/a	n/a	1	UoHDataOffsetStream
779.818238	1.701006	nback_3	8027.675646	Steps:3 KeyPress:True Matched:False	0	n/a	3	True	False	n/a	n/a	n/a	n-backMarkers
779.947148	0.004000	dropped_samples	8027.804557	Dropped 1 samples	n/a	n/a	n/a	n/a	n/a	n/a	n/a	1	UoHDataOffsetStream
781.519615	1.701006	nback_3	8029.377024	Steps:3 KeyPress:False Matched:True	0	n/a	3	False	True	n/a	n/a	n/a	n-backMarkers
783.221357	1.701006	nback_3	8031.078766	Steps:3 KeyPress:False Matched:False	1	n/a	3	False	False	n/a	n/a	n/a	n-backMarkers
784.844544	0.004000	dropped_samples	8032.701953	Dropped 1 samples	n/a	n/a	n/a	n/a	n/a	n/a	n/a	1	UoHDataOffsetStream
784.922324	1.701006	nback_3	8032.779732	Steps:3 KeyPress:False Matched:False	1	n/a	3	False	False	n/a	n/a	n/a	n-backMarkers
785.274253	0.008000	dropped_samples	8033.131662	Dropped 2 samples	n/a	n/a	n/a	n/a	n/a	n/a	n/a	2	UoHDataOffsetStream
786.329016	0.004000	dropped_samples	8034.186424	Dropped 1 samples	n/a	n/a	n/a	n/a	n/a	n/a	n/a	1	UoHDataOffsetStream
786.622604	1.701006	nback_3	8034.480013	Steps:3 KeyPress:False Matched:False	1	n/a	3	False	False	n/a	n/a	n/a	n-backMarkers
788.252820	0.004000	dropped_samples	8036.110229	Dropped 1 samples	n/a	n/a	n/a	n/a	n/a	n/a	n/a	1	UoHDataOffsetStream
788.324309	1.701006	nback_3	8036.181718	Steps:3 KeyPress:True Matched:False	0	n/a	3	True	False	n/a	n/a	n/a	n-backMarkers
788.345615	0.008000	dropped_samples	8036.203024	Dropped 2 samples	n/a	n/a	n/a	n/a	n/a	n/a	n/a	2	UoHDataOffsetStream
790.025400	1.701006	nback_3	8037.882808	Steps:3 KeyPress:False Matched:True	0	n/a	3	False	True	n/a	n/a	n/a	n-backMarkers
791.726279	1.701006	nback_3	8039.583688	Steps:3 KeyPress:False Matched:False	1	n/a	3	False	False	n/a	n/a	n/a	n-backMarkers
792.219508	0.004000	dropped_samples	8040.076917	Dropped 1 samples	n/a	n/a	n/a	n/a	n/a	n/a	n/a	1	UoHDataOffsetStream
793.427451	1.701006	nback_3	8041.284860	Steps:3 KeyPress:False Matched:False	1	n/a	3	False	False	n/a	n/a	n/a	n-backMarkers
795.127455	1.701006	nback_3	8042.984864	Steps:3 KeyPress:False Matched:False	1	n/a	3	False	False	n/a	n/a	n/a	n-backMarkers
796.828328	1.701006	nback_3	8044.685737	Steps:3 KeyPress:False Matched:False	1	n/a	3	False	False	n/a	n/a	n/a	n-backMarkers
797.036973	0.004000	dropped_samples	8044.894382	Dropped 1 samples	n/a	n/a	n/a	n/a	n/a	n/a	n/a	1	UoHDataOffsetStream
798.428565	0.004000	dropped_samples	8046.285974	Dropped 1 samples	n/a	n/a	n/a	n/a	n/a	n/a	n/a	1	UoHDataOffsetStream
805.362196	0.004000	dropped_samples	8053.219605	Dropped 1 samples	n/a	n/a	n/a	n/a	n/a	n/a	n/a	1	UoHDataOffsetStream
805.534129	1.701006	nback_4	8053.391538	Steps:4 KeyPress:False Matched:False	1	n/a	4	False	False	n/a	n/a	n/a	n-backMarkers
807.235376	1.701006	nback_4	8055.092784	Steps:4 KeyPress:False Matched:True	0	n/a	4	False	True	n/a	n/a	n/a	n-backMarkers
808.916971	0.012000	dropped_samples	8056.774380	Dropped 3 samples	n/a	n/a	n/a	n/a	n/a	n/a	n/a	3	UoHDataOffsetStream
808.936025	1.701006	nback_4	8056.793433	Steps:4 KeyPress:False Matched:False	1	n/a	4	False	False	n/a	n/a	n/a	n-backMarkers
809.273322	0.012000	dropped_samples	8057.130731	Dropped 3 samples	n/a	n/a	n/a	n/a	n/a	n/a	n/a	3	UoHDataOffsetStream
810.637266	1.701006	nback_4	8058.494675	Steps:4 KeyPress:False Matched:False	1	n/a	4	False	False	n/a	n/a	n/a	n-backMarkers
812.338429	1.701006	nback_4	8060.195838	Steps:4 KeyPress:False Matched:False	1	n/a	4	False	False	n/a	n/a	n/a	n-backMarkers
814.039590	1.701006	nback_4	8061.896999	Steps:4 KeyPress:True Matched:True	1	n/a	4	True	True	n/a	n/a	n/a	n-backMarkers
815.741209	1.701006	nback_4	8063.598618	Steps:4 KeyPress:False Matched:False	1	n/a	4	False	False	n/a	n/a	n/a	n-backMarkers
817.443183	1.701006	nback_4	8065.300592	Steps:4 KeyPress:False Matched:False	1	n/a	4	False	False	n/a	n/a	n/a	n-backMarkers
819.144387	1.701006	nback_4	8067.001796	Steps:4 KeyPress:False Matched:True	0	n/a	4	False	True	n/a	n/a	n/a	n-backMarkers
820.845862	1.701006	nback_4	8068.703270	Steps:4 KeyPress:False Matched:False	1	n/a	4	False	False	n/a	n/a	n/a	n-backMarkers
821.299738	0.004000	dropped_samples	8069.157147	Dropped 1 samples	n/a	n/a	n/a	n/a	n/a	n/a	n/a	1	UoHDataOffsetStream
822.547164	1.701006	nback_4	8070.404573	Steps:4 KeyPress:False Matched:True	0	n/a	4	False	True	n/a	n/a	n/a	n-backMarkers
824.247906	1.701006	nback_4	8072.105314	Steps:4 KeyPress:False Matched:False	1	n/a	4	False	False	n/a	n/a	n/a	n-backMarkers
825.949071	1.701006	nback_4	8073.806480	Steps:4 KeyPress:False Matched:False	1	n/a	4	False	False	n/a	n/a	n/a	n-backMarkers
827.649514	1.701006	nback_4	8075.506923	Steps:4 KeyPress:False Matched:False	1	n/a	4	False	False	n/a	n/a	n/a	n-backMarkers
828.355443	0.004000	dropped_samples	8076.212852	Dropped 1 samples	n/a	n/a	n/a	n/a	n/a	n/a	n/a	1	UoHDataOffsetStream
829.351312	1.701006	nback_4	8077.208720	Steps:4 KeyPress:True Matched:True	1	n/a	4	True	True	n/a	n/a	n/a	n-backMarkers
831.053100	1.701006	nback_4	8078.910509	Steps:4 KeyPress:False Matched:False	1	n/a	4	False	False	n/a	n/a	n/a	n-backMarkers
832.754334	1.701006	nback_4	8080.611743	Steps:4 KeyPress:False Matched:True	0	n/a	4	False	True	n/a	n/a	n/a	n-backMarkers
834.455075	1.701006	nback_4	8082.312484	Steps:4 KeyPress:True Matched:False	0	n/a	4	True	False	n/a	n/a	n/a	n-backMarkers
836.155398	1.701006	nback_4	8084.012807	Steps:4 KeyPress:False Matched:False	1	n/a	4	False	False	n/a	n/a	n/a	n-backMarkers
837.857376	1.701006	nback_4	8085.714785	Steps:4 KeyPress:False Matched:False	1	n/a	4	False	False	n/a	n/a	n/a	n-backMarkers
839.559643	1.701006	nback_4	8087.417051	Steps:4 KeyPress:False Matched:True	0	n/a	4	False	True	n/a	n/a	n/a	n-backMarkers
840.762791	0.004000	dropped_samples	8088.620199	Dropped 1 samples	n/a	n/a	n/a	n/a	n/a	n/a	n/a	1	UoHDataOffsetStream
841.259418	1.701006	nback_4	8089.116827	Steps:4 KeyPress:False Matched:True	0	n/a	4	False	True	n/a	n/a	n/a	n-backMarkers
841.509976	0.004000	dropped_samples	8089.367384	Dropped 1 samples	n/a	n/a	n/a	n/a	n/a	n/a	n/a	1	UoHDataOffsetStream
842.960288	1.701006	nback_4	8090.817696	Steps:4 KeyPress:True Matched:False	0	n/a	4	True	False	n/a	n/a	n/a	n-backMarkers
844.661177	1.701006	nback_4	8092.518586	Steps:4 KeyPress:False Matched:False	1	n/a	4	False	False	n/a	n/a	n/a	n-backMarkers
845.587024	0.004000	dropped_samples	8093.444433	Dropped 1 samples	n/a	n/a	n/a	n/a	n/a	n/a	n/a	1	UoHDataOffsetStream
846.362310	1.701006	nback_4	8094.219719	Steps:4 KeyPress:False Matched:False	1	n/a	4	False	False	n/a	n/a	n/a	n-backMarkers
848.063560	1.701006	nback_4	8095.920968	Steps:4 KeyPress:True Matched:True	1	n/a	4	True	True	n/a	n/a	n/a	n-backMarkers
849.765256	1.701006	nback_4	8097.622665	Steps:4 KeyPress:True Matched:True	1	n/a	4	True	True	n/a	n/a	n/a	n-backMarkers
851.299847	0.004000	dropped_samples	8099.157256	Dropped 1 samples	n/a	n/a	n/a	n/a	n/a	n/a	n/a	1	UoHDataOffsetStream
851.466469	1.701006	nback_4	8099.323878	Steps:4 KeyPress:False Matched:False	1	n/a	4	False	False	n/a	n/a	n/a	n-backMarkers
852.305703	0.004000	dropped_samples	8100.163111	Dropped 1 samples	n/a	n/a	n/a	n/a	n/a	n/a	n/a	1	UoHDataOffsetStream
853.167622	1.701006	nback_4	8101.025031	Steps:4 KeyPress:False Matched:False	1	n/a	4	False	False	n/a	n/a	n/a	n-backMarkers
854.868275	1.701006	nback_4	8102.725683	Steps:4 KeyPress:False Matched:False	1	n/a	4	False	False	n/a	n/a	n/a	n-backMarkers
855.621158	0.012000	dropped_samples	8103.478567	Dropped 3 samples	n/a	n/a	n/a	n/a	n/a	n/a	n/a	3	UoHDataOffsetStream
856.569898	1.701006	nback_4	8104.427307	Steps:4 KeyPress:True Matched:True	1	n/a	4	True	True	n/a	n/a	n/a	n-backMarkers
856.578232	0.012000	dropped_samples	8104.435641	Dropped 3 samples	n/a	n/a	n/a	n/a	n/a	n/a	n/a	3	UoHDataOffsetStream
858.271286	1.701006	nback_4	8106.128694	Steps:4 KeyPress:False Matched:False	1	n/a	4	False	False	n/a	n/a	n/a	n-backMarkers
859.971510	1.701006	nback_4	8107.828919	Steps:4 KeyPress:True Matched:True	1	n/a	4	True	True	n/a	n/a	n/a	n-backMarkers
861.673330	1.701006	nback_4	8109.530739	Steps:4 KeyPress:False Matched:False	1	n/a	4	False	False	n/a	n/a	n/a	n-backMarkers
863.374446	1.701006	nback_4	8111.231855	Steps:4 KeyPress:False Matched:False	1	n/a	4	False	False	n/a	n/a	n/a	n-backMarkers
865.075306	1.701006	nback_4	8112.932715	Steps:4 KeyPress:False Matched:False	1	n/a	4	False	False	n/a	n/a	n/a	n-backMarkers
865.845838	0.008000	dropped_samples	8113.703247	Dropped 2 samples	n/a	n/a	n/a	n/a	n/a	n/a	n/a	2	UoHDataOffsetStream
866.776213	1.701006	nback_4	8114.633622	Steps:4 KeyPress:True Matched:True	1	n/a	4	True	True	n/a	n/a	n/a	n-backMarkers
867.618260	0.012000	dropped_samples	8115.475669	Dropped 3 samples	n/a	n/a	n/a	n/a	n/a	n/a	n/a	3	UoHDataOffsetStream
868.478223	1.701006	nback_4	8116.335632	Steps:4 KeyPress:True Matched:False	0	n/a	4	True	False	n/a	n/a	n/a	n-backMarkers
869.205197	0.004000	dropped_samples	8117.062606	Dropped 1 samples	n/a	n/a	n/a	n/a	n/a	n/a	n/a	1	UoHDataOffsetStream
870.178999	1.701006	nback_4	8118.036407	Steps:4 KeyPress:True Matched:True	1	n/a	4	True	True	n/a	n/a	n/a	n-backMarkers
871.101796	0.004000	dropped_samples	8118.959205	Dropped 1 samples	n/a	n/a	n/a	n/a	n/a	n/a	n/a	1	UoHDataOffsetStream
871.148547	0.012000	dropped_samples	8119.005955	Dropped 3 samples	n/a	n/a	n/a	n/a	n/a	n/a	n/a	3	UoHDataOffsetStream
871.880099	1.701006	nback_4	8119.737507	Steps:4 KeyPress:False Matched:False	1	n/a	4	False	False	n/a	n/a	n/a	n-backMarkers
872.037169	0.004000	dropped_samples	8119.894577	Dropped 1 samples	n/a	n/a	n/a	n/a	n/a	n/a	n/a	1	UoHDataOffsetStream
872.276486	0.004000	dropped_samples	8120.133894	Dropped 1 samples	n/a	n/a	n/a	n/a	n/a	n/a	n/a	1	UoHDataOffsetStream
873.581293	1.701006	nback_4	8121.438702	Steps:4 KeyPress:False Matched:False	1	n/a	4	False	False	n/a	n/a	n/a	n-backMarkers
875.281787	1.701006	nback_4	8123.139196	Steps:4 KeyPress:False Matched:False	1	n/a	4	False	False	n/a	n/a	n/a	n-backMarkers
876.981771	1.701006	nback_4	8124.839180	Steps:4 KeyPress:False Matched:True	0	n/a	4	False	True	n/a	n/a	n/a	n-backMarkers
878.683294	1.701006	nback_4	8126.540703	Steps:4 KeyPress:False Matched:True	0	n/a	4	False	True	n/a	n/a	n/a	n-backMarkers
879.210071	0.004000	dropped_samples	8127.067479	Dropped 1 samples	n/a	n/a	n/a	n/a	n/a	n/a	n/a	1	UoHDataOffsetStream
880.384082	1.701006	nback_4	8128.241491	Steps:4 KeyPress:False Matched:False	1	n/a	4	False	False	n/a	n/a	n/a	n-backMarkers
882.085347	1.701006	nback_4	8129.942756	Steps:4 KeyPress:False Matched:False	1	n/a	4	False	False	n/a	n/a	n/a	n-backMarkers
883.785872	1.701006	nback_4	8131.643280	Steps:4 KeyPress:False Matched:False	1	n/a	4	False	False	n/a	n/a	n/a	n-backMarkers
884.756958	0.004000	dropped_samples	8132.614367	Dropped 1 samples	n/a	n/a	n/a	n/a	n/a	n/a	n/a	1	UoHDataOffsetStream
885.486319	1.701006	nback_4	8133.343728	Steps:4 KeyPress:True Matched:True	1	n/a	4	True	True	n/a	n/a	n/a	n-backMarkers
887.187372	1.701006	nback_4	8135.044781	Steps:4 KeyPress:False Matched:False	1	n/a	4	False	False	n/a	n/a	n/a	n-backMarkers
888.790247	0.004000	dropped_samples	8136.647655	Dropped 1 samples	n/a	n/a	n/a	n/a	n/a	n/a	n/a	1	UoHDataOffsetStream
888.888041	1.701006	nback_4	8136.745450	Steps:4 KeyPress:False Matched:False	1	n/a	4	False	False	n/a	n/a	n/a	n-backMarkers
890.588696	1.701006	nback_4	8138.446105	Steps:4 KeyPress:False Matched:True	0	n/a	4	False	True	n/a	n/a	n/a	n-backMarkers
892.289358	1.701006	nback_4	8140.146766	Steps:4 KeyPress:False Matched:False	1	n/a	4	False	False	n/a	n/a	n/a	n-backMarkers
893.990989	1.701006	nback_4	8141.848398	Steps:4 KeyPress:False Matched:False	1	n/a	4	False	False	n/a	n/a	n/a	n-backMarkers
895.691332	1.701006	nback_4	8143.548740	Steps:4 KeyPress:False Matched:False	1	n/a	4	False	False	n/a	n/a	n/a	n-backMarkers
897.393656	1.701006	nback_4	8145.251065	Steps:4 KeyPress:True Matched:True	1	n/a	4	True	True	n/a	n/a	n/a	n-backMarkers
899.095268	1.701006	nback_4	8146.952677	Steps:4 KeyPress:True Matched:True	1	n/a	4	True	True	n/a	n/a	n/a	n-backMarkers
900.796077	1.701006	nback_4	8148.653485	Steps:4 KeyPress:False Matched:False	1	n/a	4	False	False	n/a	n/a	n/a	n-backMarkers
902.497328	1.701006	nback_4	8150.354737	Steps:4 KeyPress:False Matched:False	1	n/a	4	False	False	n/a	n/a	n/a	n-backMarkers
904.197980	1.701006	nback_4	8152.055389	Steps:4 KeyPress:True Matched:False	0	n/a	4	True	False	n/a	n/a	n/a	n-backMarkers
904.459309	0.004000	dropped_samples	8152.316718	Dropped 1 samples	n/a	n/a	n/a	n/a	n/a	n/a	n/a	1	UoHDataOffsetStream
904.654493	0.004000	dropped_samples	8152.511901	Dropped 1 samples	n/a	n/a	n/a	n/a	n/a	n/a	n/a	1	UoHDataOffsetStream
905.899270	1.701006	nback_4	8153.756678	Steps:4 KeyPress:False Matched:True	0	n/a	4	False	True	n/a	n/a	n/a	n-backMarkers
907.600295	1.701006	nback_4	8155.457704	Steps:4 KeyPress:False Matched:False	1	n/a	4	False	False	n/a	n/a	n/a	n-backMarkers
909.092977	0.004000	dropped_samples	8156.950386	Dropped 1 samples	n/a	n/a	n/a	n/a	n/a	n/a	n/a	1	UoHDataOffsetStream
909.301250	1.701006	nback_4	8157.158659	Steps:4 KeyPress:False Matched:False	1	n/a	4	False	False	n/a	n/a	n/a	n-backMarkers
911.001804	1.701006	nback_4	8158.859213	Steps:4 KeyPress:False Matched:False	1	n/a	4	False	False	n/a	n/a	n/a	n-backMarkers
912.703770	1.701006	nback_4	8160.561179	Steps:4 KeyPress:False Matched:True	0	n/a	4	False	True	n/a	n/a	n/a	n-backMarkers
914.403562	1.701006	nback_4	8162.260971	Steps:4 KeyPress:True Matched:False	0	n/a	4	True	False	n/a	n/a	n/a	n-backMarkers
916.105256	1.701006	nback_4	8163.962665	Steps:4 KeyPress:False Matched:False	1	n/a	4	False	False	n/a	n/a	n/a	n-backMarkers
917.805860	1.701006	nback_4	8165.663269	Steps:4 KeyPress:False Matched:False	1	n/a	4	False	False	n/a	n/a	n/a	n-backMarkers
918.380155	0.004000	dropped_samples	8166.237564	Dropped 1 samples	n/a	n/a	n/a	n/a	n/a	n/a	n/a	1	UoHDataOffsetStream
918.980730	0.012000	dropped_samples	8166.838139	Dropped 3 samples	n/a	n/a	n/a	n/a	n/a	n/a	n/a	3	UoHDataOffsetStream
919.507506	1.701006	nback_4	8167.364915	Steps:4 KeyPress:False Matched:True	0	n/a	4	False	True	n/a	n/a	n/a	n-backMarkers
921.209310	1.701006	nback_4	8169.066718	Steps:4 KeyPress:True Matched:True	1	n/a	4	True	True	n/a	n/a	n/a	n-backMarkers
922.003313	0.004000	dropped_samples	8169.860722	Dropped 1 samples	n/a	n/a	n/a	n/a	n/a	n/a	n/a	1	UoHDataOffsetStream
922.910280	1.701006	nback_4	8170.767689	Steps:4 KeyPress:False Matched:False	1	n/a	4	False	False	n/a	n/a	n/a	n-backMarkers
924.610890	1.701006	nback_4	8172.468299	Steps:4 KeyPress:False Matched:False	1	n/a	4	False	False	n/a	n/a	n/a	n-backMarkers
926.134015	0.004000	dropped_samples	8173.991423	Dropped 1 samples	n/a	n/a	n/a	n/a	n/a	n/a	n/a	1	UoHDataOffsetStream
926.311758	1.701006	nback_4	8174.169167	Steps:4 KeyPress:False Matched:False	1	n/a	4	False	False	n/a	n/a	n/a	n-backMarkers
928.011971	1.701006	nback_4	8175.869380	Steps:4 KeyPress:True Matched:True	1	n/a	4	True	True	n/a	n/a	n/a	n-backMarkers
929.711953	1.701006	nback_4	8177.569362	Steps:4 KeyPress:True Matched:True	1	n/a	4	True	True	n/a	n/a	n/a	n-backMarkers
931.412368	1.701006	nback_4	8179.269777	Steps:4 KeyPress:True Matched:False	0	n/a	4	True	False	n/a	n/a	n/a	n-backMarkers
933.113305	1.701006	nback_4	8180.970714	Steps:4 KeyPress:False Matched:False	1	n/a	4	False	False	n/a	n/a	n/a	n-backMarkers
934.814397	1.701006	nback_4	8182.671806	Steps:4 KeyPress:False Matched:False	1	n/a	4	False	False	n/a	n/a	n/a	n-backMarkers
934.918344	0.004000	dropped_samples	8182.775752	Dropped 1 samples	n/a	n/a	n/a	n/a	n/a	n/a	n/a	1	UoHDataOffsetStream
936.514998	1.701006	nback_4	8184.372407	Steps:4 KeyPress:False Matched:True	0	n/a	4	False	True	n/a	n/a	n/a	n-backMarkers
938.217680	1.701006	nback_4	8186.075089	Steps:4 KeyPress:False Matched:True	0	n/a	4	False	True	n/a	n/a	n/a	n-backMarkers
939.919342	1.701006	nback_4	8187.776751	Steps:4 KeyPress:True Matched:False	0	n/a	4	True	False	n/a	n/a	n/a	n-backMarkers
941.621230	1.701006	nback_4	8189.478638	Steps:4 KeyPress:False Matched:False	1	n/a	4	False	False	n/a	n/a	n/a	n-backMarkers
943.321928	1.701006	nback_4	8191.179337	Steps:4 KeyPress:True Matched:False	0	n/a	4	True	False	n/a	n/a	n/a	n-backMarkers
945.023281	1.701006	nback_4	8192.880690	Steps:4 KeyPress:False Matched:True	0	n/a	4	False	True	n/a	n/a	n/a	n-backMarkers
946.724441	1.701006	nback_4	8194.581849	Steps:4 KeyPress:True Matched:False	0	n/a	4	True	False	n/a	n/a	n/a	n-backMarkers
948.426273	1.701006	nback_4	8196.283682	Steps:4 KeyPress:False Matched:True	0	n/a	4	False	True	n/a	n/a	n/a	n-backMarkers
950.128173	1.701006	nback_4	8197.985581	Steps:4 KeyPress:False Matched:False	1	n/a	4	False	False	n/a	n/a	n/a	n-backMarkers
951.829168	1.701006	nback_4	8199.686577	Steps:4 KeyPress:False Matched:False	1	n/a	4	False	False	n/a	n/a	n/a	n-backMarkers
953.468148	0.004000	dropped_samples	8201.325556	Dropped 1 samples	n/a	n/a	n/a	n/a	n/a	n/a	n/a	1	UoHDataOffsetStream
953.529488	1.701006	nback_4	8201.386896	Steps:4 KeyPress:False Matched:False	1	n/a	4	False	False	n/a	n/a	n/a	n-backMarkers
955.230391	1.701006	nback_4	8203.087800	Steps:4 KeyPress:False Matched:True	0	n/a	4	False	True	n/a	n/a	n/a	n-backMarkers
956.932400	1.701006	nback_4	8204.789809	Steps:4 KeyPress:False Matched:True	0	n/a	4	False	True	n/a	n/a	n/a	n-backMarkers
958.632495	1.701006	nback_4	8206.489904	Steps:4 KeyPress:False Matched:False	1	n/a	4	False	False	n/a	n/a	n/a	n-backMarkers
960.333449	1.701006	nback_4	8208.190858	Steps:4 KeyPress:False Matched:False	1	n/a	4	False	False	n/a	n/a	n/a	n-backMarkers
961.437022	0.004000	dropped_samples	8209.294431	Dropped 1 samples	n/a	n/a	n/a	n/a	n/a	n/a	n/a	1	UoHDataOffsetStream
962.034932	1.701006	nback_4	8209.892341	Steps:4 KeyPress:False Matched:False	1	n/a	4	False	False	n/a	n/a	n/a	n-backMarkers
963.736751	1.701006	nback_4	8211.594160	Steps:4 KeyPress:True Matched:True	1	n/a	4	True	True	n/a	n/a	n/a	n-backMarkers
965.133375	0.004000	dropped_samples	8212.990784	Dropped 1 samples	n/a	n/a	n/a	n/a	n/a	n/a	n/a	1	UoHDataOffsetStream
965.437195	1.701006	nback_4	8213.294603	Steps:4 KeyPress:False Matched:False	1	n/a	4	False	False	n/a	n/a	n/a	n-backMarkers
967.138297	1.701006	nback_4	8214.995706	Steps:4 KeyPress:False Matched:False	1	n/a	4	False	False	n/a	n/a	n/a	n-backMarkers
968.839866	1.701006	nback_4	8216.697275	Steps:4 KeyPress:False Matched:False	1	n/a	4	False	False	n/a	n/a	n/a	n-backMarkers
970.541657	1.701006	nback_4	8218.399066	Steps:4 KeyPress:True Matched:True	1	n/a	4	True	True	n/a	n/a	n/a	n-backMarkers
972.243172	1.701006	nback_4	8220.100580	Steps:4 KeyPress:True Matched:False	0	n/a	4	True	False	n/a	n/a	n/a	n-backMarkers
973.944224	1.701006	nback_4	8221.801633	Steps:4 KeyPress:False Matched:False	1	n/a	4	False	False	n/a	n/a	n/a	n-backMarkers
974.645483	0.000000	finished_n-back	8222.502891	Finished n-back	n/a	n/a	n/a	n/a	n/a	n/a	n/a	n/a	n-backMarkers
