onset	duration	trial_type	timestamp_lsl	marker	response_accuracy	nback_level	key_press	matched	outcome	istutorial	dropped_samples	marker_stream
0.751561	0.004000	dropped_samples	5805.636802	Dropped 1 samples	n/a	n/a	n/a	n/a	n/a	n/a	1	UoHDataOffsetStream
3.774033	0.004000	dropped_samples	5808.659274	Dropped 1 samples	n/a	n/a	n/a	n/a	n/a	n/a	1	UoHDataOffsetStream
5.839462	0.008000	dropped_samples	5810.724703	Dropped 2 samples	n/a	n/a	n/a	n/a	n/a	n/a	2	UoHDataOffsetStream
8.708666	0.000000	started_tutorial_n_back	5813.593907	Started tutorial n-back	n/a	n/a	n/a	n/a	n/a	true	n/a	n-backMarkers
17.026070	0.008000	dropped_samples	5821.911311	Dropped 2 samples	n/a	n/a	n/a	n/a	n/a	n/a	2	UoHDataOffsetStream
17.983087	0.004000	dropped_samples	5822.868328	Dropped 1 samples	n/a	n/a	n/a	n/a	n/a	n/a	1	UoHDataOffsetStream
25.663974	0.004000	dropped_samples	5830.549215	Dropped 1 samples	n/a	n/a	n/a	n/a	n/a	n/a	1	UoHDataOffsetStream
26.166671	0.004000	dropped_samples	5831.051912	Dropped 1 samples	n/a	n/a	n/a	n/a	n/a	n/a	1	UoHDataOffsetStream
27.895211	0.012000	dropped_samples	5832.780451	Dropped 3 samples	n/a	n/a	n/a	n/a	n/a	n/a	3	UoHDataOffsetStream
35.888402	0.004000	dropped_samples	5840.773642	Dropped 1 samples	n/a	n/a	n/a	n/a	n/a	n/a	1	UoHDataOffsetStream
42.104258	0.004000	dropped_samples	5846.989498	Dropped 1 samples	n/a	n/a	n/a	n/a	n/a	n/a	1	UoHDataOffsetStream
45.922756	0.008000	dropped_samples	5850.807997	Dropped 2 samples	n/a	n/a	n/a	n/a	n/a	n/a	2	UoHDataOffsetStream
46.039879	0.004000	dropped_samples	5850.925120	Dropped 1 samples	n/a	n/a	n/a	n/a	n/a	n/a	1	UoHDataOffsetStream
48.271209	0.004000	dropped_samples	5853.156449	Dropped 1 samples	n/a	n/a	n/a	n/a	n/a	n/a	1	UoHDataOffsetStream
51.318134	0.004000	dropped_samples	5856.203375	Dropped 1 samples	n/a	n/a	n/a	n/a	n/a	n/a	1	UoHDataOffsetStream
51.537957	0.012000	dropped_samples	5856.423198	Dropped 3 samples	n/a	n/a	n/a	n/a	n/a	n/a	3	UoHDataOffsetStream
54.535887	0.008000	dropped_samples	5859.421128	Dropped 2 samples	n/a	n/a	n/a	n/a	n/a	n/a	2	UoHDataOffsetStream
55.234263	0.004000	dropped_samples	5860.119504	Dropped 1 samples	n/a	n/a	n/a	n/a	n/a	n/a	1	UoHDataOffsetStream
57.147496	0.004000	dropped_samples	5862.032736	Dropped 1 samples	n/a	n/a	n/a	n/a	n/a	n/a	1	UoHDataOffsetStream
60.390392	0.016000	dropped_samples	5865.275632	Dropped 4 samples	n/a	n/a	n/a	n/a	n/a	n/a	4	UoHDataOffsetStream
64.018373	0.004000	dropped_samples	5868.903614	Dropped 1 samples	n/a	n/a	n/a	n/a	n/a	n/a	1	UoHDataOffsetStream
65.888483	0.008000	dropped_samples	5870.773724	Dropped 2 samples	n/a	n/a	n/a	n/a	n/a	n/a	2	UoHDataOffsetStream
69.057430	0.004000	dropped_samples	5873.942671	Dropped 1 samples	n/a	n/a	n/a	n/a	n/a	n/a	1	UoHDataOffsetStream
70.571129	0.004000	dropped_samples	5875.456369	Dropped 1 samples	n/a	n/a	n/a	n/a	n/a	n/a	1	UoHDataOffsetStream
75.297826	0.012000	dropped_samples	5880.183067	Dropped 3 samples	n/a	n/a	n/a	n/a	n/a	n/a	3	UoHDataOffsetStream
75.709710	0.000000	1-back	5880.594951	Steps:1 KeyPress:False Matched:False	1	1	false	false	Correct	true	n/a	n-backMarkers
76.162066	0.012000	dropped_samples	5881.047307	Dropped 3 samples	n/a	n/a	n/a	n/a	n/a	n/a	3	UoHDataOffsetStream
77.411547	0.000000	1-back	5882.296787	Steps:1 KeyPress:True Matched:False	0	1	true	false	Wrong	true	n/a	n-backMarkers
79.113335	0.000000	1-back	5883.998576	Steps:1 KeyPress:False Matched:False	1	1	false	false	Correct	true	n/a	n-backMarkers
80.814721	0.000000	1-back	5885.699962	Steps:1 KeyPress:False Matched:False	1	1	false	false	Correct	true	n/a	n-backMarkers
81.679500	0.004000	dropped_samples	5886.564741	Dropped 1 samples	n/a	n/a	n/a	n/a	n/a	n/a	1	UoHDataOffsetStream
82.515944	0.000000	1-back	5887.401185	Steps:1 KeyPress:False Matched:False	1	1	false	false	Correct	true	n/a	n-backMarkers
84.081934	0.008000	dropped_samples	5888.967174	Dropped 2 samples	n/a	n/a	n/a	n/a	n/a	n/a	2	UoHDataOffsetStream
84.216632	0.000000	1-back	5889.101873	Steps:1 KeyPress:True Matched:True	1	1	true	true	Correct	true	n/a	n-backMarkers
84.272312	0.008000	dropped_samples	5889.157553	Dropped 2 samples	n/a	n/a	n/a	n/a	n/a	n/a	2	UoHDataOffsetStream
85.161155	0.012000	dropped_samples	5890.046395	Dropped 3 samples	n/a	n/a	n/a	n/a	n/a	n/a	3	UoHDataOffsetStream
85.786183	0.004000	dropped_samples	5890.671424	Dropped 1 samples	n/a	n/a	n/a	n/a	n/a	n/a	1	UoHDataOffsetStream
85.917594	0.000000	1-back	5890.802834	Steps:1 KeyPress:False Matched:True	0	1	false	true	Wrong	true	n/a	n-backMarkers
86.148572	0.004000	dropped_samples	5891.033812	Dropped 1 samples	n/a	n/a	n/a	n/a	n/a	n/a	1	UoHDataOffsetStream
87.619798	0.000000	1-back	5892.505039	Steps:1 KeyPress:False Matched:False	1	1	false	false	Correct	true	n/a	n-backMarkers
87.802622	0.008000	dropped_samples	5892.687863	Dropped 2 samples	n/a	n/a	n/a	n/a	n/a	n/a	2	UoHDataOffsetStream
87.968771	0.008000	dropped_samples	5892.854012	Dropped 2 samples	n/a	n/a	n/a	n/a	n/a	n/a	2	UoHDataOffsetStream
89.321409	0.000000	1-back	5894.206649	Steps:1 KeyPress:False Matched:False	1	1	false	false	Correct	true	n/a	n-backMarkers
91.022566	0.000000	1-back	5895.907807	Steps:1 KeyPress:False Matched:True	0	1	false	true	Wrong	true	n/a	n-backMarkers
92.075097	0.004000	dropped_samples	5896.960337	Dropped 1 samples	n/a	n/a	n/a	n/a	n/a	n/a	1	UoHDataOffsetStream
92.723453	0.000000	1-back	5897.608693	Steps:1 KeyPress:False Matched:False	1	1	false	false	Correct	true	n/a	n-backMarkers
94.425270	0.000000	1-back	5899.310511	Steps:1 KeyPress:True Matched:False	0	1	true	false	Wrong	true	n/a	n-backMarkers
96.127697	0.000000	1-back	5901.012938	Steps:1 KeyPress:False Matched:True	0	1	false	true	Wrong	true	n/a	n-backMarkers
96.225626	0.012000	dropped_samples	5901.110866	Dropped 3 samples	n/a	n/a	n/a	n/a	n/a	n/a	3	UoHDataOffsetStream
97.495013	0.008000	dropped_samples	5902.380253	Dropped 2 samples	n/a	n/a	n/a	n/a	n/a	n/a	2	UoHDataOffsetStream
97.828599	0.000000	1-back	5902.713840	Steps:1 KeyPress:False Matched:False	1	1	false	false	Correct	true	n/a	n-backMarkers
99.530249	0.000000	1-back	5904.415489	Steps:1 KeyPress:True Matched:False	0	1	true	false	Wrong	true	n/a	n-backMarkers
101.231436	0.000000	1-back	5906.116676	Steps:1 KeyPress:False Matched:True	0	1	false	true	Wrong	true	n/a	n-backMarkers
102.319268	0.008000	dropped_samples	5907.204509	Dropped 2 samples	n/a	n/a	n/a	n/a	n/a	n/a	2	UoHDataOffsetStream
102.932698	0.000000	1-back	5907.817939	Steps:1 KeyPress:False Matched:True	0	1	false	true	Wrong	true	n/a	n-backMarkers
104.635050	0.000000	1-back	5909.520291	Steps:1 KeyPress:False Matched:False	1	1	false	false	Correct	true	n/a	n-backMarkers
105.751878	0.004000	dropped_samples	5910.637118	Dropped 1 samples	n/a	n/a	n/a	n/a	n/a	n/a	1	UoHDataOffsetStream
106.254822	0.012000	dropped_samples	5911.140062	Dropped 3 samples	n/a	n/a	n/a	n/a	n/a	n/a	3	UoHDataOffsetStream
106.335631	0.000000	1-back	5911.220872	Steps:1 KeyPress:True Matched:False	0	1	true	false	Wrong	true	n/a	n-backMarkers
106.640579	0.008000	dropped_samples	5911.525820	Dropped 2 samples	n/a	n/a	n/a	n/a	n/a	n/a	2	UoHDataOffsetStream
107.455963	0.004000	dropped_samples	5912.341203	Dropped 1 samples	n/a	n/a	n/a	n/a	n/a	n/a	1	UoHDataOffsetStream
108.037540	0.000000	1-back	5912.922781	Steps:1 KeyPress:False Matched:True	0	1	false	true	Wrong	true	n/a	n-backMarkers
108.681643	0.012000	dropped_samples	5913.566884	Dropped 3 samples	n/a	n/a	n/a	n/a	n/a	n/a	3	UoHDataOffsetStream
109.498408	0.012000	dropped_samples	5914.383649	Dropped 3 samples	n/a	n/a	n/a	n/a	n/a	n/a	3	UoHDataOffsetStream
109.738516	0.000000	1-back	5914.623757	Steps:1 KeyPress:False Matched:True	0	1	false	true	Wrong	true	n/a	n-backMarkers
110.576110	0.004000	dropped_samples	5915.461351	Dropped 1 samples	n/a	n/a	n/a	n/a	n/a	n/a	1	UoHDataOffsetStream
111.538053	0.008000	dropped_samples	5916.423293	Dropped 2 samples	n/a	n/a	n/a	n/a	n/a	n/a	2	UoHDataOffsetStream
113.696285	0.012000	dropped_samples	5918.581526	Dropped 3 samples	n/a	n/a	n/a	n/a	n/a	n/a	3	UoHDataOffsetStream
115.039044	0.008000	dropped_samples	5919.924284	Dropped 2 samples	n/a	n/a	n/a	n/a	n/a	n/a	2	UoHDataOffsetStream
117.944456	0.012000	dropped_samples	5922.829697	Dropped 3 samples	n/a	n/a	n/a	n/a	n/a	n/a	3	UoHDataOffsetStream
118.457432	0.000000	2-back	5923.342673	Steps:2 KeyPress:False Matched:False	1	2	false	false	Correct	true	n/a	n-backMarkers
119.169945	0.012000	dropped_samples	5924.055185	Dropped 3 samples	n/a	n/a	n/a	n/a	n/a	n/a	3	UoHDataOffsetStream
120.108009	0.004000	dropped_samples	5924.993250	Dropped 1 samples	n/a	n/a	n/a	n/a	n/a	n/a	1	UoHDataOffsetStream
120.159414	0.000000	2-back	5925.044655	Steps:2 KeyPress:False Matched:False	1	2	false	false	Correct	true	n/a	n-backMarkers
121.861402	0.000000	2-back	5926.746643	Steps:2 KeyPress:True Matched:False	0	2	true	false	Wrong	true	n/a	n-backMarkers
123.559537	0.012000	dropped_samples	5928.444778	Dropped 3 samples	n/a	n/a	n/a	n/a	n/a	n/a	3	UoHDataOffsetStream
123.562235	0.000000	2-back	5928.447475	Steps:2 KeyPress:False Matched:False	1	2	false	false	Correct	true	n/a	n-backMarkers
125.262525	0.000000	2-back	5930.147766	Steps:2 KeyPress:False Matched:True	0	2	false	true	Wrong	true	n/a	n-backMarkers
126.963939	0.000000	2-back	5931.849180	Steps:2 KeyPress:True Matched:False	0	2	true	false	Wrong	true	n/a	n-backMarkers
128.664491	0.000000	2-back	5933.549732	Steps:2 KeyPress:False Matched:False	1	2	false	false	Correct	true	n/a	n-backMarkers
129.370199	0.012000	dropped_samples	5934.255440	Dropped 3 samples	n/a	n/a	n/a	n/a	n/a	n/a	3	UoHDataOffsetStream
130.365440	0.000000	2-back	5935.250681	Steps:2 KeyPress:False Matched:False	1	2	false	false	Correct	true	n/a	n-backMarkers
132.067358	0.000000	2-back	5936.952598	Steps:2 KeyPress:True Matched:False	0	2	true	false	Wrong	true	n/a	n-backMarkers
133.768415	0.000000	2-back	5938.653656	Steps:2 KeyPress:False Matched:False	1	2	false	false	Correct	true	n/a	n-backMarkers
135.468972	0.000000	2-back	5940.354213	Steps:2 KeyPress:False Matched:False	1	2	false	false	Correct	true	n/a	n-backMarkers
137.169485	0.000000	2-back	5942.054726	Steps:2 KeyPress:True Matched:False	0	2	true	false	Wrong	true	n/a	n-backMarkers
138.869974	0.000000	2-back	5943.755215	Steps:2 KeyPress:False Matched:True	0	2	false	true	Wrong	true	n/a	n-backMarkers
139.572870	0.004000	dropped_samples	5944.458110	Dropped 1 samples	n/a	n/a	n/a	n/a	n/a	n/a	1	UoHDataOffsetStream
140.570716	0.000000	2-back	5945.455957	Steps:2 KeyPress:False Matched:False	1	2	false	false	Correct	true	n/a	n-backMarkers
140.600679	0.008000	dropped_samples	5945.485920	Dropped 2 samples	n/a	n/a	n/a	n/a	n/a	n/a	2	UoHDataOffsetStream
142.271266	0.000000	2-back	5947.156506	Steps:2 KeyPress:False Matched:False	1	2	false	false	Correct	true	n/a	n-backMarkers
143.432717	0.004000	dropped_samples	5948.317958	Dropped 1 samples	n/a	n/a	n/a	n/a	n/a	n/a	1	UoHDataOffsetStream
143.971370	0.000000	2-back	5948.856610	Steps:2 KeyPress:False Matched:False	1	2	false	false	Correct	true	n/a	n-backMarkers
144.708815	0.004000	dropped_samples	5949.594056	Dropped 1 samples	n/a	n/a	n/a	n/a	n/a	n/a	1	UoHDataOffsetStream
145.672100	0.000000	2-back	5950.557341	Steps:2 KeyPress:False Matched:True	0	2	false	true	Wrong	true	n/a	n-backMarkers
145.762024	0.008000	dropped_samples	5950.647265	Dropped 2 samples	n/a	n/a	n/a	n/a	n/a	n/a	2	UoHDataOffsetStream
147.372558	0.000000	2-back	5952.257799	Steps:2 KeyPress:False Matched:False	1	2	false	false	Correct	true	n/a	n-backMarkers
149.073411	0.000000	2-back	5953.958652	Steps:2 KeyPress:True Matched:True	1	2	true	true	Correct	true	n/a	n-backMarkers
150.774784	0.000000	2-back	5955.660024	Steps:2 KeyPress:False Matched:False	1	2	false	false	Correct	true	n/a	n-backMarkers
151.280622	0.004000	dropped_samples	5956.165863	Dropped 1 samples	n/a	n/a	n/a	n/a	n/a	n/a	1	UoHDataOffsetStream
153.056736	0.004000	dropped_samples	5957.941977	Dropped 1 samples	n/a	n/a	n/a	n/a	n/a	n/a	1	UoHDataOffsetStream
153.442452	0.004000	dropped_samples	5958.327693	Dropped 1 samples	n/a	n/a	n/a	n/a	n/a	n/a	1	UoHDataOffsetStream
155.288187	0.004000	dropped_samples	5960.173428	Dropped 1 samples	n/a	n/a	n/a	n/a	n/a	n/a	1	UoHDataOffsetStream
159.496595	0.000000	3-back	5964.381836	Steps:3 KeyPress:False Matched:False	1	3	false	false	Correct	true	n/a	n-backMarkers
160.400841	0.008000	dropped_samples	5965.286082	Dropped 2 samples	n/a	n/a	n/a	n/a	n/a	n/a	2	UoHDataOffsetStream
161.123166	0.008000	dropped_samples	5966.008407	Dropped 2 samples	n/a	n/a	n/a	n/a	n/a	n/a	2	UoHDataOffsetStream
161.198904	0.000000	3-back	5966.084144	Steps:3 KeyPress:False Matched:False	1	3	false	false	Correct	true	n/a	n-backMarkers
162.898986	0.000000	3-back	5967.784227	Steps:3 KeyPress:False Matched:False	1	3	false	false	Correct	true	n/a	n-backMarkers
164.601288	0.000000	3-back	5969.486529	Steps:3 KeyPress:False Matched:False	1	3	false	false	Correct	true	n/a	n-backMarkers
166.301530	0.000000	3-back	5971.186771	Steps:3 KeyPress:False Matched:False	1	3	false	false	Correct	true	n/a	n-backMarkers
168.002578	0.000000	3-back	5972.887818	Steps:3 KeyPress:False Matched:False	1	3	false	false	Correct	true	n/a	n-backMarkers
169.704111	0.000000	3-back	5974.589352	Steps:3 KeyPress:False Matched:False	1	3	false	false	Correct	true	n/a	n-backMarkers
169.931839	0.008000	dropped_samples	5974.817080	Dropped 2 samples	n/a	n/a	n/a	n/a	n/a	n/a	2	UoHDataOffsetStream
170.361456	0.004000	dropped_samples	5975.246697	Dropped 1 samples	n/a	n/a	n/a	n/a	n/a	n/a	1	UoHDataOffsetStream
171.405124	0.000000	3-back	5976.290365	Steps:3 KeyPress:False Matched:False	1	3	false	false	Correct	true	n/a	n-backMarkers
171.679863	0.004000	dropped_samples	5976.565104	Dropped 1 samples	n/a	n/a	n/a	n/a	n/a	n/a	1	UoHDataOffsetStream
171.875171	0.004000	dropped_samples	5976.760412	Dropped 1 samples	n/a	n/a	n/a	n/a	n/a	n/a	1	UoHDataOffsetStream
173.105492	0.000000	3-back	5977.990733	Steps:3 KeyPress:True Matched:False	0	3	true	false	Wrong	true	n/a	n-backMarkers
174.806879	0.000000	3-back	5979.692120	Steps:3 KeyPress:False Matched:False	1	3	false	false	Correct	true	n/a	n-backMarkers
176.508236	0.000000	3-back	5981.393477	Steps:3 KeyPress:False Matched:False	1	3	false	false	Correct	true	n/a	n-backMarkers
178.210221	0.000000	3-back	5983.095462	Steps:3 KeyPress:False Matched:False	1	3	false	false	Correct	true	n/a	n-backMarkers
179.910849	0.000000	3-back	5984.796089	Steps:3 KeyPress:True Matched:False	0	3	true	false	Wrong	true	n/a	n-backMarkers
180.776649	0.004000	dropped_samples	5985.661890	Dropped 1 samples	n/a	n/a	n/a	n/a	n/a	n/a	1	UoHDataOffsetStream
181.612434	0.000000	3-back	5986.497674	Steps:3 KeyPress:False Matched:True	0	3	false	true	Wrong	true	n/a	n-backMarkers
183.313490	0.000000	3-back	5988.198731	Steps:3 KeyPress:False Matched:False	1	3	false	false	Correct	true	n/a	n-backMarkers
185.014229	0.000000	3-back	5989.899470	Steps:3 KeyPress:False Matched:False	1	3	false	false	Correct	true	n/a	n-backMarkers
186.715386	0.000000	3-back	5991.600627	Steps:3 KeyPress:False Matched:True	0	3	false	true	Wrong	true	n/a	n-backMarkers
188.416497	0.000000	3-back	5993.301737	Steps:3 KeyPress:False Matched:False	1	3	false	false	Correct	true	n/a	n-backMarkers
188.432875	0.004000	dropped_samples	5993.318115	Dropped 1 samples	n/a	n/a	n/a	n/a	n/a	n/a	1	UoHDataOffsetStream
190.117431	0.000000	3-back	5995.002672	Steps:3 KeyPress:False Matched:False	1	3	false	false	Correct	true	n/a	n-backMarkers
191.486566	0.012000	dropped_samples	5996.371807	Dropped 3 samples	n/a	n/a	n/a	n/a	n/a	n/a	3	UoHDataOffsetStream
191.528536	0.008000	dropped_samples	5996.413777	Dropped 2 samples	n/a	n/a	n/a	n/a	n/a	n/a	2	UoHDataOffsetStream
191.772675	0.012000	dropped_samples	5996.657915	Dropped 3 samples	n/a	n/a	n/a	n/a	n/a	n/a	3	UoHDataOffsetStream
191.818596	0.000000	3-back	5996.703837	Steps:3 KeyPress:False Matched:False	1	3	false	false	Correct	true	n/a	n-backMarkers
192.251208	0.008000	dropped_samples	5997.136449	Dropped 2 samples	n/a	n/a	n/a	n/a	n/a	n/a	2	UoHDataOffsetStream
194.482631	0.004000	dropped_samples	5999.367872	Dropped 1 samples	n/a	n/a	n/a	n/a	n/a	n/a	1	UoHDataOffsetStream
196.328351	0.004000	dropped_samples	6001.213592	Dropped 1 samples	n/a	n/a	n/a	n/a	n/a	n/a	1	UoHDataOffsetStream
198.056909	0.004000	dropped_samples	6002.942150	Dropped 1 samples	n/a	n/a	n/a	n/a	n/a	n/a	1	UoHDataOffsetStream
200.146719	0.004000	dropped_samples	6005.031959	Dropped 1 samples	n/a	n/a	n/a	n/a	n/a	n/a	1	UoHDataOffsetStream
200.523974	0.000000	4-back	6005.409214	Steps:4 KeyPress:False Matched:False	1	4	false	false	Correct	true	n/a	n-backMarkers
200.889177	0.012000	dropped_samples	6005.774418	Dropped 3 samples	n/a	n/a	n/a	n/a	n/a	n/a	3	UoHDataOffsetStream
201.112405	0.012000	dropped_samples	6005.997645	Dropped 3 samples	n/a	n/a	n/a	n/a	n/a	n/a	3	UoHDataOffsetStream
201.177270	0.008000	dropped_samples	6006.062511	Dropped 2 samples	n/a	n/a	n/a	n/a	n/a	n/a	2	UoHDataOffsetStream
201.329037	0.004000	dropped_samples	6006.214278	Dropped 1 samples	n/a	n/a	n/a	n/a	n/a	n/a	1	UoHDataOffsetStream
202.225221	0.000000	4-back	6007.110462	Steps:4 KeyPress:False Matched:True	0	4	false	true	Wrong	true	n/a	n-backMarkers
203.926481	0.000000	4-back	6008.811722	Steps:4 KeyPress:False Matched:False	1	4	false	false	Correct	true	n/a	n-backMarkers
205.626767	0.000000	4-back	6010.512008	Steps:4 KeyPress:False Matched:True	0	4	false	true	Wrong	true	n/a	n-backMarkers
207.328836	0.000000	4-back	6012.214077	Steps:4 KeyPress:False Matched:False	1	4	false	false	Correct	true	n/a	n-backMarkers
209.030606	0.000000	4-back	6013.915847	Steps:4 KeyPress:False Matched:False	1	4	false	false	Correct	true	n/a	n-backMarkers
210.732499	0.000000	4-back	6015.617740	Steps:4 KeyPress:False Matched:False	1	4	false	false	Correct	true	n/a	n-backMarkers
212.433662	0.000000	4-back	6017.318902	Steps:4 KeyPress:False Matched:True	0	4	false	true	Wrong	true	n/a	n-backMarkers
214.133833	0.000000	4-back	6019.019074	Steps:4 KeyPress:False Matched:False	1	4	false	false	Correct	true	n/a	n-backMarkers
214.209308	0.012000	dropped_samples	6019.094548	Dropped 3 samples	n/a	n/a	n/a	n/a	n/a	n/a	3	UoHDataOffsetStream
215.835232	0.000000	4-back	6020.720473	Steps:4 KeyPress:False Matched:False	1	4	false	false	Correct	true	n/a	n-backMarkers
217.536272	0.000000	4-back	6022.421513	Steps:4 KeyPress:False Matched:True	0	4	false	true	Wrong	true	n/a	n-backMarkers
219.237758	0.000000	4-back	6024.122999	Steps:4 KeyPress:False Matched:False	1	4	false	false	Correct	true	n/a	n-backMarkers
219.493134	0.004000	dropped_samples	6024.378374	Dropped 1 samples	n/a	n/a	n/a	n/a	n/a	n/a	1	UoHDataOffsetStream
220.884135	0.004000	dropped_samples	6025.769376	Dropped 1 samples	n/a	n/a	n/a	n/a	n/a	n/a	1	UoHDataOffsetStream
220.938084	0.000000	4-back	6025.823325	Steps:4 KeyPress:False Matched:False	1	4	false	false	Correct	true	n/a	n-backMarkers
222.638538	0.000000	4-back	6027.523779	Steps:4 KeyPress:False Matched:False	1	4	false	false	Correct	true	n/a	n-backMarkers
222.705393	0.004000	dropped_samples	6027.590634	Dropped 1 samples	n/a	n/a	n/a	n/a	n/a	n/a	1	UoHDataOffsetStream
224.339410	0.000000	4-back	6029.224651	Steps:4 KeyPress:False Matched:True	0	4	false	true	Wrong	true	n/a	n-backMarkers
226.040409	0.000000	4-back	6030.925650	Steps:4 KeyPress:False Matched:False	1	4	false	false	Correct	true	n/a	n-backMarkers
227.741258	0.000000	4-back	6032.626499	Steps:4 KeyPress:False Matched:True	0	4	false	true	Wrong	true	n/a	n-backMarkers
228.320654	0.004000	dropped_samples	6033.205895	Dropped 1 samples	n/a	n/a	n/a	n/a	n/a	n/a	1	UoHDataOffsetStream
229.442464	0.000000	4-back	6034.327705	Steps:4 KeyPress:False Matched:False	1	4	false	false	Correct	true	n/a	n-backMarkers
231.143357	0.000000	4-back	6036.028598	Steps:4 KeyPress:True Matched:False	0	4	true	false	Wrong	true	n/a	n-backMarkers
231.777711	0.008000	dropped_samples	6036.662952	Dropped 2 samples	n/a	n/a	n/a	n/a	n/a	n/a	2	UoHDataOffsetStream
232.843701	0.000000	4-back	6037.728942	Steps:4 KeyPress:False Matched:False	1	4	false	false	Correct	true	n/a	n-backMarkers
233.548442	0.000000	finished_tutorial_n_back	6038.433683	Finished tutorial n-back	n/a	n/a	n/a	n/a	n/a	true	n/a	n-backMarkers
237.973191	0.000000	started_n_back	6042.858432	Started n-back	n/a	n/a	n/a	n/a	n/a	false	n/a	n-backMarkers
238.476942	0.004000	dropped_samples	6043.362183	Dropped 1 samples	n/a	n/a	n/a	n/a	n/a	n/a	1	UoHDataOffsetStream
238.955444	0.004000	dropped_samples	6043.840685	Dropped 1 samples	n/a	n/a	n/a	n/a	n/a	n/a	1	UoHDataOffsetStream
239.263281	0.012000	dropped_samples	6044.148522	Dropped 3 samples	n/a	n/a	n/a	n/a	n/a	n/a	3	UoHDataOffsetStream
239.731082	0.012000	dropped_samples	6044.616322	Dropped 3 samples	n/a	n/a	n/a	n/a	n/a	n/a	3	UoHDataOffsetStream
239.770883	0.012000	dropped_samples	6044.656124	Dropped 3 samples	n/a	n/a	n/a	n/a	n/a	n/a	3	UoHDataOffsetStream
241.641043	0.012000	dropped_samples	6046.526284	Dropped 3 samples	n/a	n/a	n/a	n/a	n/a	n/a	3	UoHDataOffsetStream
241.789187	0.004000	dropped_samples	6046.674428	Dropped 1 samples	n/a	n/a	n/a	n/a	n/a	n/a	1	UoHDataOffsetStream
244.233823	0.008000	dropped_samples	6049.119064	Dropped 2 samples	n/a	n/a	n/a	n/a	n/a	n/a	2	UoHDataOffsetStream
245.984344	0.000000	1-back	6050.869585	Steps:1 KeyPress:False Matched:False	1	1	false	false	Correct	false	n/a	n-backMarkers
247.686571	0.000000	1-back	6052.571811	Steps:1 KeyPress:False Matched:False	1	1	false	false	Correct	false	n/a	n-backMarkers
249.388086	0.000000	1-back	6054.273326	Steps:1 KeyPress:True Matched:False	0	1	true	false	Wrong	false	n/a	n-backMarkers
250.261600	0.004000	dropped_samples	6055.146840	Dropped 1 samples	n/a	n/a	n/a	n/a	n/a	n/a	1	UoHDataOffsetStream
250.425213	0.008000	dropped_samples	6055.310454	Dropped 2 samples	n/a	n/a	n/a	n/a	n/a	n/a	2	UoHDataOffsetStream
251.088988	0.000000	1-back	6055.974228	Steps:1 KeyPress:False Matched:False	1	1	false	false	Correct	false	n/a	n-backMarkers
251.436016	0.004000	dropped_samples	6056.321257	Dropped 1 samples	n/a	n/a	n/a	n/a	n/a	n/a	1	UoHDataOffsetStream
252.790123	0.000000	1-back	6057.675364	Steps:1 KeyPress:True Matched:False	0	1	true	false	Wrong	false	n/a	n-backMarkers
254.491129	0.000000	1-back	6059.376370	Steps:1 KeyPress:False Matched:False	1	1	false	false	Correct	false	n/a	n-backMarkers
256.192272	0.000000	1-back	6061.077512	Steps:1 KeyPress:True Matched:False	0	1	true	false	Wrong	false	n/a	n-backMarkers
256.405534	0.004000	dropped_samples	6061.290775	Dropped 1 samples	n/a	n/a	n/a	n/a	n/a	n/a	1	UoHDataOffsetStream
257.893027	0.000000	1-back	6062.778268	Steps:1 KeyPress:False Matched:True	0	1	false	true	Wrong	false	n/a	n-backMarkers
258.828593	0.012000	dropped_samples	6063.713833	Dropped 3 samples	n/a	n/a	n/a	n/a	n/a	n/a	3	UoHDataOffsetStream
259.593150	0.000000	1-back	6064.478390	Steps:1 KeyPress:True Matched:True	1	1	true	true	Correct	false	n/a	n-backMarkers
261.294107	0.000000	1-back	6066.179348	Steps:1 KeyPress:False Matched:True	0	1	false	true	Wrong	false	n/a	n-backMarkers
262.261194	0.008000	dropped_samples	6067.146435	Dropped 2 samples	n/a	n/a	n/a	n/a	n/a	n/a	2	UoHDataOffsetStream
262.995064	0.000000	1-back	6067.880305	Steps:1 KeyPress:False Matched:True	0	1	false	true	Wrong	false	n/a	n-backMarkers
263.340318	0.004000	dropped_samples	6068.225558	Dropped 1 samples	n/a	n/a	n/a	n/a	n/a	n/a	1	UoHDataOffsetStream
264.695064	0.000000	1-back	6069.580305	Steps:1 KeyPress:False Matched:False	1	1	false	false	Correct	false	n/a	n-backMarkers
264.756325	0.004000	dropped_samples	6069.641566	Dropped 1 samples	n/a	n/a	n/a	n/a	n/a	n/a	1	UoHDataOffsetStream
266.395939	0.000000	1-back	6071.281180	Steps:1 KeyPress:True Matched:False	0	1	true	false	Wrong	false	n/a	n-backMarkers
268.097196	0.000000	1-back	6072.982437	Steps:1 KeyPress:False Matched:False	1	1	false	false	Correct	false	n/a	n-backMarkers
269.798996	0.000000	1-back	6074.684237	Steps:1 KeyPress:True Matched:False	0	1	true	false	Wrong	false	n/a	n-backMarkers
271.187003	0.012000	dropped_samples	6076.072243	Dropped 3 samples	n/a	n/a	n/a	n/a	n/a	n/a	3	UoHDataOffsetStream
271.500139	0.000000	1-back	6076.385380	Steps:1 KeyPress:False Matched:False	1	1	false	false	Correct	false	n/a	n-backMarkers
273.201461	0.000000	1-back	6078.086701	Steps:1 KeyPress:True Matched:False	0	1	true	false	Wrong	false	n/a	n-backMarkers
274.902540	0.000000	1-back	6079.787781	Steps:1 KeyPress:False Matched:False	1	1	false	false	Correct	false	n/a	n-backMarkers
276.603458	0.000000	1-back	6081.488699	Steps:1 KeyPress:True Matched:False	0	1	true	false	Wrong	false	n/a	n-backMarkers
278.304186	0.000000	1-back	6083.189427	Steps:1 KeyPress:False Matched:False	1	1	false	false	Correct	false	n/a	n-backMarkers
279.082527	0.004000	dropped_samples	6083.967768	Dropped 1 samples	n/a	n/a	n/a	n/a	n/a	n/a	1	UoHDataOffsetStream
279.585440	0.012000	dropped_samples	6084.470681	Dropped 3 samples	n/a	n/a	n/a	n/a	n/a	n/a	3	UoHDataOffsetStream
280.005268	0.000000	1-back	6084.890509	Steps:1 KeyPress:True Matched:False	0	1	true	false	Wrong	false	n/a	n-backMarkers
281.706391	0.000000	1-back	6086.591632	Steps:1 KeyPress:False Matched:False	1	1	false	false	Correct	false	n/a	n-backMarkers
283.407561	0.000000	1-back	6088.292802	Steps:1 KeyPress:True Matched:False	0	1	true	false	Wrong	false	n/a	n-backMarkers
285.109053	0.000000	1-back	6089.994293	Steps:1 KeyPress:False Matched:False	1	1	false	false	Correct	false	n/a	n-backMarkers
285.494195	0.004000	dropped_samples	6090.379436	Dropped 1 samples	n/a	n/a	n/a	n/a	n/a	n/a	1	UoHDataOffsetStream
286.809337	0.000000	1-back	6091.694577	Steps:1 KeyPress:True Matched:False	0	1	true	false	Wrong	false	n/a	n-backMarkers
288.511033	0.000000	1-back	6093.396274	Steps:1 KeyPress:False Matched:False	1	1	false	false	Correct	false	n/a	n-backMarkers
290.212220	0.000000	1-back	6095.097461	Steps:1 KeyPress:True Matched:False	0	1	true	false	Wrong	false	n/a	n-backMarkers
290.962439	0.004000	dropped_samples	6095.847680	Dropped 1 samples	n/a	n/a	n/a	n/a	n/a	n/a	1	UoHDataOffsetStream
291.913160	0.000000	1-back	6096.798401	Steps:1 KeyPress:False Matched:False	1	1	false	false	Correct	false	n/a	n-backMarkers
293.613425	0.000000	1-back	6098.498666	Steps:1 KeyPress:True Matched:False	0	1	true	false	Wrong	false	n/a	n-backMarkers
293.770107	0.004000	dropped_samples	6098.655347	Dropped 1 samples	n/a	n/a	n/a	n/a	n/a	n/a	1	UoHDataOffsetStream
295.315242	0.000000	1-back	6100.200483	Steps:1 KeyPress:False Matched:False	1	1	false	false	Correct	false	n/a	n-backMarkers
297.017040	0.000000	1-back	6101.902280	Steps:1 KeyPress:False Matched:False	1	1	false	false	Correct	false	n/a	n-backMarkers
298.717113	0.000000	1-back	6103.602354	Steps:1 KeyPress:True Matched:True	1	1	true	true	Correct	false	n/a	n-backMarkers
300.417773	0.000000	1-back	6105.303014	Steps:1 KeyPress:True Matched:True	1	1	true	true	Correct	false	n/a	n-backMarkers
300.562163	0.004000	dropped_samples	6105.447403	Dropped 1 samples	n/a	n/a	n/a	n/a	n/a	n/a	1	UoHDataOffsetStream
300.635342	0.004000	dropped_samples	6105.520583	Dropped 1 samples	n/a	n/a	n/a	n/a	n/a	n/a	1	UoHDataOffsetStream
300.733022	0.004000	dropped_samples	6105.618263	Dropped 1 samples	n/a	n/a	n/a	n/a	n/a	n/a	1	UoHDataOffsetStream
301.597280	0.012000	dropped_samples	6106.482520	Dropped 3 samples	n/a	n/a	n/a	n/a	n/a	n/a	3	UoHDataOffsetStream
302.119097	0.000000	1-back	6107.004337	Steps:1 KeyPress:False Matched:False	1	1	false	false	Correct	false	n/a	n-backMarkers
303.820017	0.000000	1-back	6108.705258	Steps:1 KeyPress:True Matched:False	0	1	true	false	Wrong	false	n/a	n-backMarkers
304.497665	0.004000	dropped_samples	6109.382906	Dropped 1 samples	n/a	n/a	n/a	n/a	n/a	n/a	1	UoHDataOffsetStream
305.520608	0.000000	1-back	6110.405849	Steps:1 KeyPress:False Matched:True	0	1	false	true	Wrong	false	n/a	n-backMarkers
306.997662	0.012000	dropped_samples	6111.882902	Dropped 3 samples	n/a	n/a	n/a	n/a	n/a	n/a	3	UoHDataOffsetStream
307.221684	0.000000	1-back	6112.106925	Steps:1 KeyPress:False Matched:False	1	1	false	false	Correct	false	n/a	n-backMarkers
308.923081	0.000000	1-back	6113.808322	Steps:1 KeyPress:True Matched:False	0	1	true	false	Wrong	false	n/a	n-backMarkers
310.624181	0.000000	1-back	6115.509422	Steps:1 KeyPress:False Matched:True	0	1	false	true	Wrong	false	n/a	n-backMarkers
311.822001	0.012000	dropped_samples	6116.707242	Dropped 3 samples	n/a	n/a	n/a	n/a	n/a	n/a	3	UoHDataOffsetStream
312.325070	0.000000	1-back	6117.210311	Steps:1 KeyPress:False Matched:True	0	1	false	true	Wrong	false	n/a	n-backMarkers
312.559351	0.012000	dropped_samples	6117.444592	Dropped 3 samples	n/a	n/a	n/a	n/a	n/a	n/a	3	UoHDataOffsetStream
314.025371	0.000000	1-back	6118.910611	Steps:1 KeyPress:False Matched:False	1	1	false	false	Correct	false	n/a	n-backMarkers
315.727027	0.000000	1-back	6120.612268	Steps:1 KeyPress:True Matched:False	0	1	true	false	Wrong	false	n/a	n-backMarkers
316.738901	0.004000	dropped_samples	6121.624142	Dropped 1 samples	n/a	n/a	n/a	n/a	n/a	n/a	1	UoHDataOffsetStream
317.427060	0.000000	1-back	6122.312300	Steps:1 KeyPress:False Matched:False	1	1	false	false	Correct	false	n/a	n-backMarkers
319.127916	0.000000	1-back	6124.013157	Steps:1 KeyPress:True Matched:False	0	1	true	false	Wrong	false	n/a	n-backMarkers
320.828412	0.000000	1-back	6125.713653	Steps:1 KeyPress:False Matched:True	0	1	false	true	Wrong	false	n/a	n-backMarkers
322.236972	0.012000	dropped_samples	6127.122213	Dropped 3 samples	n/a	n/a	n/a	n/a	n/a	n/a	3	UoHDataOffsetStream
322.530067	0.000000	1-back	6127.415308	Steps:1 KeyPress:False Matched:True	0	1	false	true	Wrong	false	n/a	n-backMarkers
322.574127	0.008000	dropped_samples	6127.459368	Dropped 2 samples	n/a	n/a	n/a	n/a	n/a	n/a	2	UoHDataOffsetStream
323.604155	0.004000	dropped_samples	6128.489396	Dropped 1 samples	n/a	n/a	n/a	n/a	n/a	n/a	1	UoHDataOffsetStream
324.155880	0.008000	dropped_samples	6129.041120	Dropped 2 samples	n/a	n/a	n/a	n/a	n/a	n/a	2	UoHDataOffsetStream
324.231155	0.000000	1-back	6129.116396	Steps:1 KeyPress:True Matched:False	0	1	true	false	Wrong	false	n/a	n-backMarkers
324.829784	0.008000	dropped_samples	6129.715025	Dropped 2 samples	n/a	n/a	n/a	n/a	n/a	n/a	2	UoHDataOffsetStream
325.932365	0.000000	1-back	6130.817606	Steps:1 KeyPress:False Matched:False	1	1	false	false	Correct	false	n/a	n-backMarkers
326.436149	0.004000	dropped_samples	6131.321390	Dropped 1 samples	n/a	n/a	n/a	n/a	n/a	n/a	1	UoHDataOffsetStream
326.773139	0.008000	dropped_samples	6131.658380	Dropped 2 samples	n/a	n/a	n/a	n/a	n/a	n/a	2	UoHDataOffsetStream
327.633120	0.000000	1-back	6132.518361	Steps:1 KeyPress:False Matched:False	1	1	false	false	Correct	false	n/a	n-backMarkers
329.334366	0.000000	1-back	6134.219607	Steps:1 KeyPress:False Matched:False	1	1	false	false	Correct	false	n/a	n-backMarkers
331.035184	0.000000	1-back	6135.920425	Steps:1 KeyPress:True Matched:False	0	1	true	false	Wrong	false	n/a	n-backMarkers
332.736245	0.000000	1-back	6137.621486	Steps:1 KeyPress:False Matched:False	1	1	false	false	Correct	false	n/a	n-backMarkers
334.437009	0.000000	1-back	6139.322250	Steps:1 KeyPress:True Matched:False	0	1	true	false	Wrong	false	n/a	n-backMarkers
336.137580	0.000000	1-back	6141.022821	Steps:1 KeyPress:False Matched:True	0	1	false	true	Wrong	false	n/a	n-backMarkers
337.838262	0.000000	1-back	6142.723503	Steps:1 KeyPress:False Matched:False	1	1	false	false	Correct	false	n/a	n-backMarkers
339.322087	0.012000	dropped_samples	6144.207328	Dropped 3 samples	n/a	n/a	n/a	n/a	n/a	n/a	3	UoHDataOffsetStream
339.539132	0.000000	1-back	6144.424373	Steps:1 KeyPress:True Matched:False	0	1	true	false	Wrong	false	n/a	n-backMarkers
339.995768	0.004000	dropped_samples	6144.881008	Dropped 1 samples	n/a	n/a	n/a	n/a	n/a	n/a	1	UoHDataOffsetStream
340.884495	0.012000	dropped_samples	6145.769736	Dropped 3 samples	n/a	n/a	n/a	n/a	n/a	n/a	3	UoHDataOffsetStream
341.240129	0.000000	1-back	6146.125370	Steps:1 KeyPress:False Matched:False	1	1	false	false	Correct	false	n/a	n-backMarkers
342.940996	0.000000	1-back	6147.826237	Steps:1 KeyPress:True Matched:False	0	1	true	false	Wrong	false	n/a	n-backMarkers
344.642099	0.000000	1-back	6149.527340	Steps:1 KeyPress:False Matched:True	0	1	false	true	Wrong	false	n/a	n-backMarkers
345.108105	0.012000	dropped_samples	6149.993346	Dropped 3 samples	n/a	n/a	n/a	n/a	n/a	n/a	3	UoHDataOffsetStream
346.342823	0.000000	1-back	6151.228063	Steps:1 KeyPress:False Matched:True	0	1	false	true	Wrong	false	n/a	n-backMarkers
348.043474	0.000000	1-back	6152.928715	Steps:1 KeyPress:False Matched:False	1	1	false	false	Correct	false	n/a	n-backMarkers
349.068095	0.004000	dropped_samples	6153.953335	Dropped 1 samples	n/a	n/a	n/a	n/a	n/a	n/a	1	UoHDataOffsetStream
349.744818	0.000000	1-back	6154.630059	Steps:1 KeyPress:False Matched:False	1	1	false	false	Correct	false	n/a	n-backMarkers
351.445387	0.000000	1-back	6156.330628	Steps:1 KeyPress:False Matched:False	1	1	false	false	Correct	false	n/a	n-backMarkers
353.146215	0.000000	1-back	6158.031455	Steps:1 KeyPress:True Matched:False	0	1	true	false	Wrong	false	n/a	n-backMarkers
354.847390	0.000000	1-back	6159.732631	Steps:1 KeyPress:False Matched:False	1	1	false	false	Correct	false	n/a	n-backMarkers
356.548428	0.000000	1-back	6161.433668	Steps:1 KeyPress:True Matched:False	0	1	true	false	Wrong	false	n/a	n-backMarkers
356.651150	0.004000	dropped_samples	6161.536390	Dropped 1 samples	n/a	n/a	n/a	n/a	n/a	n/a	1	UoHDataOffsetStream
356.822156	0.008000	dropped_samples	6161.707396	Dropped 2 samples	n/a	n/a	n/a	n/a	n/a	n/a	2	UoHDataOffsetStream
357.588665	0.004000	dropped_samples	6162.473906	Dropped 1 samples	n/a	n/a	n/a	n/a	n/a	n/a	1	UoHDataOffsetStream
358.249299	0.000000	1-back	6163.134540	Steps:1 KeyPress:False Matched:False	1	1	false	false	Correct	false	n/a	n-backMarkers
359.950135	0.000000	1-back	6164.835376	Steps:1 KeyPress:True Matched:False	0	1	true	false	Wrong	false	n/a	n-backMarkers
361.650999	0.000000	1-back	6166.536239	Steps:1 KeyPress:False Matched:True	0	1	false	true	Wrong	false	n/a	n-backMarkers
363.352020	0.000000	1-back	6168.237260	Steps:1 KeyPress:False Matched:True	0	1	false	true	Wrong	false	n/a	n-backMarkers
364.742019	0.012000	dropped_samples	6169.627259	Dropped 3 samples	n/a	n/a	n/a	n/a	n/a	n/a	3	UoHDataOffsetStream
365.052940	0.000000	1-back	6169.938181	Steps:1 KeyPress:False Matched:False	1	1	false	false	Correct	false	n/a	n-backMarkers
366.753380	0.000000	1-back	6171.638621	Steps:1 KeyPress:True Matched:False	0	1	true	false	Wrong	false	n/a	n-backMarkers
368.455657	0.000000	1-back	6173.340898	Steps:1 KeyPress:False Matched:True	0	1	false	true	Wrong	false	n/a	n-backMarkers
370.156653	0.000000	1-back	6175.041893	Steps:1 KeyPress:False Matched:True	0	1	false	true	Wrong	false	n/a	n-backMarkers
370.357350	0.004000	dropped_samples	6175.242591	Dropped 1 samples	n/a	n/a	n/a	n/a	n/a	n/a	1	UoHDataOffsetStream
371.558393	0.012000	dropped_samples	6176.443634	Dropped 3 samples	n/a	n/a	n/a	n/a	n/a	n/a	3	UoHDataOffsetStream
371.857982	0.000000	1-back	6176.743222	Steps:1 KeyPress:False Matched:False	1	1	false	false	Correct	false	n/a	n-backMarkers
372.876775	0.012000	dropped_samples	6177.762016	Dropped 3 samples	n/a	n/a	n/a	n/a	n/a	n/a	3	UoHDataOffsetStream
373.559192	0.000000	1-back	6178.444433	Steps:1 KeyPress:True Matched:False	0	1	true	false	Wrong	false	n/a	n-backMarkers
375.260268	0.000000	1-back	6180.145509	Steps:1 KeyPress:True Matched:True	1	1	true	true	Correct	false	n/a	n-backMarkers
376.962350	0.000000	1-back	6181.847591	Steps:1 KeyPress:True Matched:True	1	1	true	true	Correct	false	n/a	n-backMarkers
377.676703	0.004000	dropped_samples	6182.561944	Dropped 1 samples	n/a	n/a	n/a	n/a	n/a	n/a	1	UoHDataOffsetStream
378.664039	0.000000	1-back	6183.549280	Steps:1 KeyPress:False Matched:False	1	1	false	false	Correct	false	n/a	n-backMarkers
378.995013	0.004000	dropped_samples	6183.880254	Dropped 1 samples	n/a	n/a	n/a	n/a	n/a	n/a	1	UoHDataOffsetStream
380.365295	0.000000	1-back	6185.250536	Steps:1 KeyPress:True Matched:False	0	1	true	false	Wrong	false	n/a	n-backMarkers
382.066058	0.000000	1-back	6186.951299	Steps:1 KeyPress:False Matched:True	0	1	false	true	Wrong	false	n/a	n-backMarkers
383.150299	0.004000	dropped_samples	6188.035540	Dropped 1 samples	n/a	n/a	n/a	n/a	n/a	n/a	1	UoHDataOffsetStream
383.487149	0.012000	dropped_samples	6188.372389	Dropped 3 samples	n/a	n/a	n/a	n/a	n/a	n/a	3	UoHDataOffsetStream
383.766099	0.000000	1-back	6188.651340	Steps:1 KeyPress:False Matched:True	0	1	false	true	Wrong	false	n/a	n-backMarkers
385.468075	0.000000	1-back	6190.353316	Steps:1 KeyPress:False Matched:False	1	1	false	false	Correct	false	n/a	n-backMarkers
387.169087	0.000000	1-back	6192.054328	Steps:1 KeyPress:False Matched:False	1	1	false	false	Correct	false	n/a	n-backMarkers
387.422729	0.004000	dropped_samples	6192.307969	Dropped 1 samples	n/a	n/a	n/a	n/a	n/a	n/a	1	UoHDataOffsetStream
388.869106	0.000000	1-back	6193.754347	Steps:1 KeyPress:False Matched:False	1	1	false	false	Correct	false	n/a	n-backMarkers
390.570328	0.000000	1-back	6195.455569	Steps:1 KeyPress:True Matched:False	0	1	true	false	Wrong	false	n/a	n-backMarkers
392.271232	0.000000	1-back	6197.156473	Steps:1 KeyPress:False Matched:False	1	1	false	false	Correct	false	n/a	n-backMarkers
392.701066	0.004000	dropped_samples	6197.586307	Dropped 1 samples	n/a	n/a	n/a	n/a	n/a	n/a	1	UoHDataOffsetStream
393.252832	0.004000	dropped_samples	6198.138073	Dropped 1 samples	n/a	n/a	n/a	n/a	n/a	n/a	1	UoHDataOffsetStream
393.972137	0.000000	1-back	6198.857378	Steps:1 KeyPress:True Matched:False	0	1	true	false	Wrong	false	n/a	n-backMarkers
394.283115	0.004000	dropped_samples	6199.168355	Dropped 1 samples	n/a	n/a	n/a	n/a	n/a	n/a	1	UoHDataOffsetStream
395.673320	0.000000	1-back	6200.558561	Steps:1 KeyPress:False Matched:True	0	1	false	true	Wrong	false	n/a	n-backMarkers
397.374327	0.000000	1-back	6202.259568	Steps:1 KeyPress:False Matched:True	0	1	false	true	Wrong	false	n/a	n-backMarkers
398.077132	0.004000	dropped_samples	6202.962373	Dropped 1 samples	n/a	n/a	n/a	n/a	n/a	n/a	1	UoHDataOffsetStream
399.075170	0.000000	1-back	6203.960411	Steps:1 KeyPress:False Matched:False	1	1	false	false	Correct	false	n/a	n-backMarkers
399.854379	0.008000	dropped_samples	6204.739620	Dropped 2 samples	n/a	n/a	n/a	n/a	n/a	n/a	2	UoHDataOffsetStream
400.776142	0.000000	1-back	6205.661383	Steps:1 KeyPress:True Matched:False	0	1	true	false	Wrong	false	n/a	n-backMarkers
401.534128	0.004000	dropped_samples	6206.419369	Dropped 1 samples	n/a	n/a	n/a	n/a	n/a	n/a	1	UoHDataOffsetStream
402.085945	0.004000	dropped_samples	6206.971186	Dropped 1 samples	n/a	n/a	n/a	n/a	n/a	n/a	1	UoHDataOffsetStream
402.476903	0.000000	1-back	6207.362143	Steps:1 KeyPress:False Matched:True	0	1	false	true	Wrong	false	n/a	n-backMarkers
404.177096	0.000000	1-back	6209.062337	Steps:1 KeyPress:False Matched:True	0	1	false	true	Wrong	false	n/a	n-backMarkers
404.317344	0.004000	dropped_samples	6209.202585	Dropped 1 samples	n/a	n/a	n/a	n/a	n/a	n/a	1	UoHDataOffsetStream
404.415020	0.004000	dropped_samples	6209.300260	Dropped 1 samples	n/a	n/a	n/a	n/a	n/a	n/a	1	UoHDataOffsetStream
405.878274	0.000000	1-back	6210.763514	Steps:1 KeyPress:False Matched:False	1	1	false	false	Correct	false	n/a	n-backMarkers
407.578331	0.000000	1-back	6212.463571	Steps:1 KeyPress:True Matched:False	0	1	true	false	Wrong	false	n/a	n-backMarkers
409.280099	0.000000	1-back	6214.165340	Steps:1 KeyPress:True Matched:True	1	1	true	true	Correct	false	n/a	n-backMarkers
410.981322	0.000000	1-back	6215.866563	Steps:1 KeyPress:True Matched:True	1	1	true	true	Correct	false	n/a	n-backMarkers
412.683009	0.000000	1-back	6217.568250	Steps:1 KeyPress:False Matched:False	1	1	false	false	Correct	false	n/a	n-backMarkers
414.384125	0.000000	1-back	6219.269365	Steps:1 KeyPress:True Matched:False	0	1	true	false	Wrong	false	n/a	n-backMarkers
415.835849	0.004000	dropped_samples	6220.721089	Dropped 1 samples	n/a	n/a	n/a	n/a	n/a	n/a	1	UoHDataOffsetStream
423.087002	0.000000	2-back	6227.972242	Steps:2 KeyPress:False Matched:False	1	2	false	false	Correct	false	n/a	n-backMarkers
424.788121	0.000000	2-back	6229.673361	Steps:2 KeyPress:False Matched:False	1	2	false	false	Correct	false	n/a	n-backMarkers
425.391612	0.004000	dropped_samples	6230.276853	Dropped 1 samples	n/a	n/a	n/a	n/a	n/a	n/a	1	UoHDataOffsetStream
426.231444	0.004000	dropped_samples	6231.116684	Dropped 1 samples	n/a	n/a	n/a	n/a	n/a	n/a	1	UoHDataOffsetStream
426.489098	0.000000	2-back	6231.374339	Steps:2 KeyPress:True Matched:False	0	2	true	false	Wrong	false	n/a	n-backMarkers
428.101573	0.004000	dropped_samples	6232.986814	Dropped 1 samples	n/a	n/a	n/a	n/a	n/a	n/a	1	UoHDataOffsetStream
428.190061	0.000000	2-back	6233.075301	Steps:2 KeyPress:False Matched:False	1	2	false	false	Correct	false	n/a	n-backMarkers
429.891204	0.000000	2-back	6234.776445	Steps:2 KeyPress:False Matched:False	1	2	false	false	Correct	false	n/a	n-backMarkers
430.430667	0.004000	dropped_samples	6235.315908	Dropped 1 samples	n/a	n/a	n/a	n/a	n/a	n/a	1	UoHDataOffsetStream
431.592043	0.000000	2-back	6236.477284	Steps:2 KeyPress:False Matched:False	1	2	false	false	Correct	false	n/a	n-backMarkers
432.999045	0.004000	dropped_samples	6237.884286	Dropped 1 samples	n/a	n/a	n/a	n/a	n/a	n/a	1	UoHDataOffsetStream
433.293910	0.000000	2-back	6238.179151	Steps:2 KeyPress:True Matched:True	1	2	true	true	Correct	false	n/a	n-backMarkers
434.995669	0.000000	2-back	6239.880910	Steps:2 KeyPress:False Matched:False	1	2	false	false	Correct	false	n/a	n-backMarkers
436.696395	0.000000	2-back	6241.581636	Steps:2 KeyPress:False Matched:False	1	2	false	false	Correct	false	n/a	n-backMarkers
438.398960	0.000000	2-back	6243.284201	Steps:2 KeyPress:True Matched:True	1	2	true	true	Correct	false	n/a	n-backMarkers
440.100122	0.000000	2-back	6244.985363	Steps:2 KeyPress:False Matched:False	1	2	false	false	Correct	false	n/a	n-backMarkers
441.801120	0.000000	2-back	6246.686361	Steps:2 KeyPress:False Matched:False	1	2	false	false	Correct	false	n/a	n-backMarkers
443.502967	0.000000	2-back	6248.388208	Steps:2 KeyPress:True Matched:False	0	2	true	false	Wrong	false	n/a	n-backMarkers
445.203231	0.000000	2-back	6250.088472	Steps:2 KeyPress:False Matched:True	0	2	false	true	Wrong	false	n/a	n-backMarkers
446.904128	0.000000	2-back	6251.789369	Steps:2 KeyPress:False Matched:False	1	2	false	false	Correct	false	n/a	n-backMarkers
448.605105	0.000000	2-back	6253.490345	Steps:2 KeyPress:False Matched:True	0	2	false	true	Wrong	false	n/a	n-backMarkers
450.306306	0.000000	2-back	6255.191547	Steps:2 KeyPress:False Matched:False	1	2	false	false	Correct	false	n/a	n-backMarkers
451.358483	0.004000	dropped_samples	6256.243723	Dropped 1 samples	n/a	n/a	n/a	n/a	n/a	n/a	1	UoHDataOffsetStream
452.007135	0.000000	2-back	6256.892376	Steps:2 KeyPress:False Matched:False	1	2	false	false	Correct	false	n/a	n-backMarkers
453.709103	0.000000	2-back	6258.594344	Steps:2 KeyPress:True Matched:False	0	2	true	false	Wrong	false	n/a	n-backMarkers
455.410508	0.000000	2-back	6260.295749	Steps:2 KeyPress:False Matched:True	0	2	false	true	Wrong	false	n/a	n-backMarkers
456.612400	0.008000	dropped_samples	6261.497641	Dropped 2 samples	n/a	n/a	n/a	n/a	n/a	n/a	2	UoHDataOffsetStream
457.111119	0.000000	2-back	6261.996360	Steps:2 KeyPress:False Matched:False	1	2	false	false	Correct	false	n/a	n-backMarkers
458.812329	0.000000	2-back	6263.697569	Steps:2 KeyPress:False Matched:False	1	2	false	false	Correct	false	n/a	n-backMarkers
460.514198	0.000000	2-back	6265.399439	Steps:2 KeyPress:True Matched:False	0	2	true	false	Wrong	false	n/a	n-backMarkers
461.846797	0.004000	dropped_samples	6266.732037	Dropped 1 samples	n/a	n/a	n/a	n/a	n/a	n/a	1	UoHDataOffsetStream
462.215022	0.000000	2-back	6267.100263	Steps:2 KeyPress:False Matched:True	0	2	false	true	Wrong	false	n/a	n-backMarkers
463.915950	0.000000	2-back	6268.801190	Steps:2 KeyPress:False Matched:False	1	2	false	false	Correct	false	n/a	n-backMarkers
464.366384	0.004000	dropped_samples	6269.251625	Dropped 1 samples	n/a	n/a	n/a	n/a	n/a	n/a	1	UoHDataOffsetStream
465.015702	0.008000	dropped_samples	6269.900943	Dropped 2 samples	n/a	n/a	n/a	n/a	n/a	n/a	2	UoHDataOffsetStream
465.616960	0.000000	2-back	6270.502200	Steps:2 KeyPress:False Matched:False	1	2	false	false	Correct	false	n/a	n-backMarkers
465.806767	0.004000	dropped_samples	6270.692008	Dropped 1 samples	n/a	n/a	n/a	n/a	n/a	n/a	1	UoHDataOffsetStream
467.317697	0.000000	2-back	6272.202937	Steps:2 KeyPress:False Matched:False	1	2	false	false	Correct	false	n/a	n-backMarkers
469.018215	0.000000	2-back	6273.903456	Steps:2 KeyPress:True Matched:False	0	2	true	false	Wrong	false	n/a	n-backMarkers
470.718865	0.000000	2-back	6275.604106	Steps:2 KeyPress:False Matched:True	0	2	false	true	Wrong	false	n/a	n-backMarkers
471.448689	0.012000	dropped_samples	6276.333929	Dropped 3 samples	n/a	n/a	n/a	n/a	n/a	n/a	3	UoHDataOffsetStream
472.419251	0.000000	2-back	6277.304492	Steps:2 KeyPress:False Matched:False	1	2	false	false	Correct	false	n/a	n-backMarkers
472.691582	0.004000	dropped_samples	6277.576823	Dropped 1 samples	n/a	n/a	n/a	n/a	n/a	n/a	1	UoHDataOffsetStream
474.120224	0.000000	2-back	6279.005465	Steps:2 KeyPress:False Matched:False	1	2	false	false	Correct	false	n/a	n-backMarkers
475.821269	0.000000	2-back	6280.706509	Steps:2 KeyPress:True Matched:False	0	2	true	false	Wrong	false	n/a	n-backMarkers
477.523172	0.000000	2-back	6282.408412	Steps:2 KeyPress:False Matched:False	1	2	false	false	Correct	false	n/a	n-backMarkers
479.223225	0.000000	2-back	6284.108466	Steps:2 KeyPress:False Matched:False	1	2	false	false	Correct	false	n/a	n-backMarkers
480.924040	0.000000	2-back	6285.809280	Steps:2 KeyPress:True Matched:False	0	2	true	false	Wrong	false	n/a	n-backMarkers
482.076460	0.012000	dropped_samples	6286.961701	Dropped 3 samples	n/a	n/a	n/a	n/a	n/a	n/a	3	UoHDataOffsetStream
482.625256	0.000000	2-back	6287.510497	Steps:2 KeyPress:False Matched:True	0	2	false	true	Wrong	false	n/a	n-backMarkers
484.335999	0.000000	2-back	6289.221240	Steps:2 KeyPress:False Matched:False	1	2	false	false	Correct	false	n/a	n-backMarkers
486.037141	0.000000	2-back	6290.922382	Steps:2 KeyPress:False Matched:False	1	2	false	false	Correct	false	n/a	n-backMarkers
487.737827	0.000000	2-back	6292.623068	Steps:2 KeyPress:True Matched:False	0	2	true	false	Wrong	false	n/a	n-backMarkers
488.028568	0.004000	dropped_samples	6292.913809	Dropped 1 samples	n/a	n/a	n/a	n/a	n/a	n/a	1	UoHDataOffsetStream
489.439133	0.000000	2-back	6294.324374	Steps:2 KeyPress:False Matched:False	1	2	false	false	Correct	false	n/a	n-backMarkers
489.757060	0.004000	dropped_samples	6294.642301	Dropped 1 samples	n/a	n/a	n/a	n/a	n/a	n/a	1	UoHDataOffsetStream
491.140009	0.000000	2-back	6296.025250	Steps:2 KeyPress:False Matched:False	1	2	false	false	Correct	false	n/a	n-backMarkers
492.840545	0.000000	2-back	6297.725786	Steps:2 KeyPress:True Matched:False	0	2	true	false	Wrong	false	n/a	n-backMarkers
493.477775	0.008000	dropped_samples	6298.363016	Dropped 2 samples	n/a	n/a	n/a	n/a	n/a	n/a	2	UoHDataOffsetStream
494.541105	0.000000	2-back	6299.426346	Steps:2 KeyPress:False Matched:False	1	2	false	false	Correct	false	n/a	n-backMarkers
494.967065	0.004000	dropped_samples	6299.852305	Dropped 1 samples	n/a	n/a	n/a	n/a	n/a	n/a	1	UoHDataOffsetStream
495.328383	0.008000	dropped_samples	6300.213624	Dropped 2 samples	n/a	n/a	n/a	n/a	n/a	n/a	2	UoHDataOffsetStream
496.242538	0.000000	2-back	6301.127778	Steps:2 KeyPress:False Matched:False	1	2	false	false	Correct	false	n/a	n-backMarkers
497.943171	0.000000	2-back	6302.828411	Steps:2 KeyPress:True Matched:False	0	2	true	false	Wrong	false	n/a	n-backMarkers
499.644659	0.000000	2-back	6304.529900	Steps:2 KeyPress:False Matched:False	1	2	false	false	Correct	false	n/a	n-backMarkers
501.344823	0.000000	2-back	6306.230064	Steps:2 KeyPress:False Matched:False	1	2	false	false	Correct	false	n/a	n-backMarkers
502.384047	0.004000	dropped_samples	6307.269288	Dropped 1 samples	n/a	n/a	n/a	n/a	n/a	n/a	1	UoHDataOffsetStream
503.045291	0.000000	2-back	6307.930531	Steps:2 KeyPress:True Matched:False	0	2	true	false	Wrong	false	n/a	n-backMarkers
503.077410	0.004000	dropped_samples	6307.962651	Dropped 1 samples	n/a	n/a	n/a	n/a	n/a	n/a	1	UoHDataOffsetStream
504.747079	0.000000	2-back	6309.632320	Steps:2 KeyPress:False Matched:False	1	2	false	false	Correct	false	n/a	n-backMarkers
506.448285	0.000000	2-back	6311.333526	Steps:2 KeyPress:False Matched:False	1	2	false	false	Correct	false	n/a	n-backMarkers
508.148774	0.000000	2-back	6313.034015	Steps:2 KeyPress:True Matched:False	0	2	true	false	Wrong	false	n/a	n-backMarkers
508.428987	0.008000	dropped_samples	6313.314228	Dropped 2 samples	n/a	n/a	n/a	n/a	n/a	n/a	2	UoHDataOffsetStream
509.849085	0.000000	2-back	6314.734326	Steps:2 KeyPress:False Matched:False	1	2	false	false	Correct	false	n/a	n-backMarkers
511.334288	0.012000	dropped_samples	6316.219529	Dropped 3 samples	n/a	n/a	n/a	n/a	n/a	n/a	3	UoHDataOffsetStream
511.552004	0.000000	2-back	6316.437245	Steps:2 KeyPress:False Matched:False	1	2	false	false	Correct	false	n/a	n-backMarkers
513.252211	0.000000	2-back	6318.137452	Steps:2 KeyPress:True Matched:False	0	2	true	false	Wrong	false	n/a	n-backMarkers
514.478835	0.004000	dropped_samples	6319.364075	Dropped 1 samples	n/a	n/a	n/a	n/a	n/a	n/a	1	UoHDataOffsetStream
514.952364	0.000000	2-back	6319.837605	Steps:2 KeyPress:False Matched:True	0	2	false	true	Wrong	false	n/a	n-backMarkers
516.653072	0.000000	2-back	6321.538313	Steps:2 KeyPress:False Matched:False	1	2	false	false	Correct	false	n/a	n-backMarkers
518.354719	0.000000	2-back	6323.239960	Steps:2 KeyPress:False Matched:False	1	2	false	false	Correct	false	n/a	n-backMarkers
520.055045	0.000000	2-back	6324.940286	Steps:2 KeyPress:True Matched:False	0	2	true	false	Wrong	false	n/a	n-backMarkers
521.756166	0.000000	2-back	6326.641407	Steps:2 KeyPress:False Matched:True	0	2	false	true	Wrong	false	n/a	n-backMarkers
523.457140	0.000000	2-back	6328.342381	Steps:2 KeyPress:False Matched:False	1	2	false	false	Correct	false	n/a	n-backMarkers
525.158797	0.000000	2-back	6330.044038	Steps:2 KeyPress:False Matched:True	0	2	false	true	Wrong	false	n/a	n-backMarkers
526.859744	0.000000	2-back	6331.744985	Steps:2 KeyPress:False Matched:False	1	2	false	false	Correct	false	n/a	n-backMarkers
528.561022	0.000000	2-back	6333.446263	Steps:2 KeyPress:False Matched:False	1	2	false	false	Correct	false	n/a	n-backMarkers
530.263007	0.000000	2-back	6335.148248	Steps:2 KeyPress:True Matched:False	0	2	true	false	Wrong	false	n/a	n-backMarkers
531.182951	0.004000	dropped_samples	6336.068192	Dropped 1 samples	n/a	n/a	n/a	n/a	n/a	n/a	1	UoHDataOffsetStream
531.963205	0.000000	2-back	6336.848446	Steps:2 KeyPress:False Matched:True	0	2	false	true	Wrong	false	n/a	n-backMarkers
532.765031	0.004000	dropped_samples	6337.650272	Dropped 1 samples	n/a	n/a	n/a	n/a	n/a	n/a	1	UoHDataOffsetStream
533.665040	0.000000	2-back	6338.550280	Steps:2 KeyPress:False Matched:False	1	2	false	false	Correct	false	n/a	n-backMarkers
535.365494	0.000000	2-back	6340.250735	Steps:2 KeyPress:False Matched:False	1	2	false	false	Correct	false	n/a	n-backMarkers
537.066876	0.000000	2-back	6341.952117	Steps:2 KeyPress:False Matched:False	1	2	false	false	Correct	false	n/a	n-backMarkers
537.760146	0.004000	dropped_samples	6342.645386	Dropped 1 samples	n/a	n/a	n/a	n/a	n/a	n/a	1	UoHDataOffsetStream
538.767170	0.000000	2-back	6343.652411	Steps:2 KeyPress:False Matched:False	1	2	false	false	Correct	false	n/a	n-backMarkers
540.468213	0.000000	2-back	6345.353454	Steps:2 KeyPress:False Matched:False	1	2	false	false	Correct	false	n/a	n-backMarkers
542.168348	0.000000	2-back	6347.053589	Steps:2 KeyPress:False Matched:False	1	2	false	false	Correct	false	n/a	n-backMarkers
542.462287	0.012000	dropped_samples	6347.347528	Dropped 3 samples	n/a	n/a	n/a	n/a	n/a	n/a	3	UoHDataOffsetStream
543.870209	0.000000	2-back	6348.755450	Steps:2 KeyPress:True Matched:False	0	2	true	false	Wrong	false	n/a	n-backMarkers
545.571010	0.000000	2-back	6350.456251	Steps:2 KeyPress:False Matched:True	0	2	false	true	Wrong	false	n/a	n-backMarkers
545.748438	0.004000	dropped_samples	6350.633678	Dropped 1 samples	n/a	n/a	n/a	n/a	n/a	n/a	1	UoHDataOffsetStream
546.759179	0.012000	dropped_samples	6351.644419	Dropped 3 samples	n/a	n/a	n/a	n/a	n/a	n/a	3	UoHDataOffsetStream
547.272078	0.000000	2-back	6352.157319	Steps:2 KeyPress:False Matched:False	1	2	false	false	Correct	false	n/a	n-backMarkers
548.727017	0.004000	dropped_samples	6353.612257	Dropped 1 samples	n/a	n/a	n/a	n/a	n/a	n/a	1	UoHDataOffsetStream
548.973142	0.000000	2-back	6353.858383	Steps:2 KeyPress:False Matched:False	1	2	false	false	Correct	false	n/a	n-backMarkers
549.015079	0.012000	dropped_samples	6353.900320	Dropped 3 samples	n/a	n/a	n/a	n/a	n/a	n/a	3	UoHDataOffsetStream
550.674882	0.000000	2-back	6355.560123	Steps:2 KeyPress:True Matched:False	0	2	true	false	Wrong	false	n/a	n-backMarkers
552.374992	0.000000	2-back	6357.260232	Steps:2 KeyPress:False Matched:False	1	2	false	false	Correct	false	n/a	n-backMarkers
554.076038	0.000000	2-back	6358.961279	Steps:2 KeyPress:False Matched:False	1	2	false	false	Correct	false	n/a	n-backMarkers
555.776260	0.000000	2-back	6360.661501	Steps:2 KeyPress:True Matched:False	0	2	true	false	Wrong	false	n/a	n-backMarkers
555.855857	0.012000	dropped_samples	6360.741097	Dropped 3 samples	n/a	n/a	n/a	n/a	n/a	n/a	3	UoHDataOffsetStream
556.217232	0.004000	dropped_samples	6361.102473	Dropped 1 samples	n/a	n/a	n/a	n/a	n/a	n/a	1	UoHDataOffsetStream
556.744585	0.012000	dropped_samples	6361.629825	Dropped 3 samples	n/a	n/a	n/a	n/a	n/a	n/a	3	UoHDataOffsetStream
557.477708	0.000000	2-back	6362.362949	Steps:2 KeyPress:False Matched:True	0	2	false	true	Wrong	false	n/a	n-backMarkers
558.185005	0.004000	dropped_samples	6363.070246	Dropped 1 samples	n/a	n/a	n/a	n/a	n/a	n/a	1	UoHDataOffsetStream
559.178621	0.000000	2-back	6364.063862	Steps:2 KeyPress:False Matched:False	1	2	false	false	Correct	false	n/a	n-backMarkers
559.864697	0.004000	dropped_samples	6364.749938	Dropped 1 samples	n/a	n/a	n/a	n/a	n/a	n/a	1	UoHDataOffsetStream
560.879061	0.000000	2-back	6365.764302	Steps:2 KeyPress:False Matched:False	1	2	false	false	Correct	false	n/a	n-backMarkers
562.262147	0.004000	dropped_samples	6367.147387	Dropped 1 samples	n/a	n/a	n/a	n/a	n/a	n/a	1	UoHDataOffsetStream
562.580637	0.000000	2-back	6367.465878	Steps:2 KeyPress:False Matched:False	1	2	false	false	Correct	false	n/a	n-backMarkers
563.297441	0.004000	dropped_samples	6368.182681	Dropped 1 samples	n/a	n/a	n/a	n/a	n/a	n/a	1	UoHDataOffsetStream
563.536570	0.004000	dropped_samples	6368.421811	Dropped 1 samples	n/a	n/a	n/a	n/a	n/a	n/a	1	UoHDataOffsetStream
563.966230	0.004000	dropped_samples	6368.851471	Dropped 1 samples	n/a	n/a	n/a	n/a	n/a	n/a	1	UoHDataOffsetStream
564.282301	0.000000	2-back	6369.167542	Steps:2 KeyPress:True Matched:False	0	2	true	false	Wrong	false	n/a	n-backMarkers
565.982914	0.000000	2-back	6370.868154	Steps:2 KeyPress:False Matched:True	0	2	false	true	Wrong	false	n/a	n-backMarkers
567.683955	0.000000	2-back	6372.569195	Steps:2 KeyPress:False Matched:False	1	2	false	false	Correct	false	n/a	n-backMarkers
568.360806	0.004000	dropped_samples	6373.246047	Dropped 1 samples	n/a	n/a	n/a	n/a	n/a	n/a	1	UoHDataOffsetStream
568.790526	0.004000	dropped_samples	6373.675767	Dropped 1 samples	n/a	n/a	n/a	n/a	n/a	n/a	1	UoHDataOffsetStream
569.384496	0.000000	2-back	6374.269736	Steps:2 KeyPress:False Matched:False	1	2	false	false	Correct	false	n/a	n-backMarkers
569.439892	0.004000	dropped_samples	6374.325132	Dropped 1 samples	n/a	n/a	n/a	n/a	n/a	n/a	1	UoHDataOffsetStream
570.421381	0.004000	dropped_samples	6375.306622	Dropped 1 samples	n/a	n/a	n/a	n/a	n/a	n/a	1	UoHDataOffsetStream
570.616708	0.004000	dropped_samples	6375.501949	Dropped 1 samples	n/a	n/a	n/a	n/a	n/a	n/a	1	UoHDataOffsetStream
571.085123	0.000000	2-back	6375.970363	Steps:2 KeyPress:True Matched:False	0	2	true	false	Wrong	false	n/a	n-backMarkers
572.511235	0.004000	dropped_samples	6377.396476	Dropped 1 samples	n/a	n/a	n/a	n/a	n/a	n/a	1	UoHDataOffsetStream
572.785257	0.000000	2-back	6377.670498	Steps:2 KeyPress:False Matched:False	1	2	false	false	Correct	false	n/a	n-backMarkers
574.486821	0.000000	2-back	6379.372062	Steps:2 KeyPress:False Matched:False	1	2	false	false	Correct	false	n/a	n-backMarkers
576.188058	0.000000	2-back	6381.073299	Steps:2 KeyPress:True Matched:False	0	2	true	false	Wrong	false	n/a	n-backMarkers
576.637243	0.004000	dropped_samples	6381.522484	Dropped 1 samples	n/a	n/a	n/a	n/a	n/a	n/a	1	UoHDataOffsetStream
577.888872	0.000000	2-back	6382.774112	Steps:2 KeyPress:False Matched:True	0	2	false	true	Wrong	false	n/a	n-backMarkers
579.589488	0.000000	2-back	6384.474729	Steps:2 KeyPress:False Matched:False	1	2	false	false	Correct	false	n/a	n-backMarkers
581.291090	0.000000	2-back	6386.176330	Steps:2 KeyPress:False Matched:False	1	2	false	false	Correct	false	n/a	n-backMarkers
582.991921	0.000000	2-back	6387.877162	Steps:2 KeyPress:True Matched:False	0	2	true	false	Wrong	false	n/a	n-backMarkers
584.692093	0.000000	2-back	6389.577333	Steps:2 KeyPress:False Matched:False	1	2	false	false	Correct	false	n/a	n-backMarkers
586.392468	0.000000	2-back	6391.277709	Steps:2 KeyPress:False Matched:False	1	2	false	false	Correct	false	n/a	n-backMarkers
588.094064	0.000000	2-back	6392.979305	Steps:2 KeyPress:True Matched:False	0	2	true	false	Wrong	false	n/a	n-backMarkers
589.795294	0.000000	2-back	6394.680534	Steps:2 KeyPress:False Matched:True	0	2	false	true	Wrong	false	n/a	n-backMarkers
591.496265	0.000000	2-back	6396.381506	Steps:2 KeyPress:False Matched:False	1	2	false	false	Correct	false	n/a	n-backMarkers
593.463434	0.008000	dropped_samples	6398.348675	Dropped 2 samples	n/a	n/a	n/a	n/a	n/a	n/a	2	UoHDataOffsetStream
593.873674	0.008000	dropped_samples	6398.758915	Dropped 2 samples	n/a	n/a	n/a	n/a	n/a	n/a	2	UoHDataOffsetStream
594.591371	0.008000	dropped_samples	6399.476612	Dropped 2 samples	n/a	n/a	n/a	n/a	n/a	n/a	2	UoHDataOffsetStream
597.403034	0.004000	dropped_samples	6402.288274	Dropped 1 samples	n/a	n/a	n/a	n/a	n/a	n/a	1	UoHDataOffsetStream
599.801450	0.012000	dropped_samples	6404.686691	Dropped 3 samples	n/a	n/a	n/a	n/a	n/a	n/a	3	UoHDataOffsetStream
600.206611	0.012000	dropped_samples	6405.091852	Dropped 3 samples	n/a	n/a	n/a	n/a	n/a	n/a	3	UoHDataOffsetStream
600.209052	0.000000	3-back	6405.094293	Steps:3 KeyPress:False Matched:False	1	3	false	false	Correct	false	n/a	n-backMarkers
600.353083	0.004000	dropped_samples	6405.238324	Dropped 1 samples	n/a	n/a	n/a	n/a	n/a	n/a	1	UoHDataOffsetStream
601.909378	0.000000	3-back	6406.794619	Steps:3 KeyPress:False Matched:False	1	3	false	false	Correct	false	n/a	n-backMarkers
603.610882	0.000000	3-back	6408.496122	Steps:3 KeyPress:False Matched:False	1	3	false	false	Correct	false	n/a	n-backMarkers
605.311140	0.000000	3-back	6410.196381	Steps:3 KeyPress:False Matched:False	1	3	false	false	Correct	false	n/a	n-backMarkers
606.471285	0.008000	dropped_samples	6411.356526	Dropped 2 samples	n/a	n/a	n/a	n/a	n/a	n/a	2	UoHDataOffsetStream
607.012866	0.000000	3-back	6411.898106	Steps:3 KeyPress:False Matched:False	1	3	false	false	Correct	false	n/a	n-backMarkers
608.714015	0.000000	3-back	6413.599256	Steps:3 KeyPress:True Matched:True	1	3	true	true	Correct	false	n/a	n-backMarkers
610.414536	0.000000	3-back	6415.299777	Steps:3 KeyPress:False Matched:False	1	3	false	false	Correct	false	n/a	n-backMarkers
610.768230	0.012000	dropped_samples	6415.653471	Dropped 3 samples	n/a	n/a	n/a	n/a	n/a	n/a	3	UoHDataOffsetStream
612.115076	0.000000	3-back	6417.000317	Steps:3 KeyPress:False Matched:False	1	3	false	false	Correct	false	n/a	n-backMarkers
613.816093	0.000000	3-back	6418.701334	Steps:3 KeyPress:False Matched:False	1	3	false	false	Correct	false	n/a	n-backMarkers
615.516379	0.000000	3-back	6420.401620	Steps:3 KeyPress:False Matched:False	1	3	false	false	Correct	false	n/a	n-backMarkers
617.218150	0.000000	3-back	6422.103390	Steps:3 KeyPress:False Matched:False	1	3	false	false	Correct	false	n/a	n-backMarkers
618.639294	0.012000	dropped_samples	6423.524535	Dropped 3 samples	n/a	n/a	n/a	n/a	n/a	n/a	3	UoHDataOffsetStream
618.919117	0.000000	3-back	6423.804358	Steps:3 KeyPress:True Matched:False	0	3	true	false	Wrong	false	n/a	n-backMarkers
619.239895	0.004000	dropped_samples	6424.125136	Dropped 1 samples	n/a	n/a	n/a	n/a	n/a	n/a	1	UoHDataOffsetStream
620.620922	0.000000	3-back	6425.506162	Steps:3 KeyPress:False Matched:True	0	3	false	true	Wrong	false	n/a	n-backMarkers
621.661774	0.004000	dropped_samples	6426.547015	Dropped 1 samples	n/a	n/a	n/a	n/a	n/a	n/a	1	UoHDataOffsetStream
622.321093	0.000000	3-back	6427.206334	Steps:3 KeyPress:False Matched:False	1	3	false	false	Correct	false	n/a	n-backMarkers
623.585626	0.004000	dropped_samples	6428.470867	Dropped 1 samples	n/a	n/a	n/a	n/a	n/a	n/a	1	UoHDataOffsetStream
623.776041	0.004000	dropped_samples	6428.661282	Dropped 1 samples	n/a	n/a	n/a	n/a	n/a	n/a	1	UoHDataOffsetStream
624.022014	0.000000	3-back	6428.907254	Steps:3 KeyPress:False Matched:False	1	3	false	false	Correct	false	n/a	n-backMarkers
624.493814	0.004000	dropped_samples	6429.379054	Dropped 1 samples	n/a	n/a	n/a	n/a	n/a	n/a	1	UoHDataOffsetStream
625.723010	0.000000	3-back	6430.608251	Steps:3 KeyPress:False Matched:False	1	3	false	false	Correct	false	n/a	n-backMarkers
627.135377	0.012000	dropped_samples	6432.020618	Dropped 3 samples	n/a	n/a	n/a	n/a	n/a	n/a	3	UoHDataOffsetStream
627.423414	0.000000	3-back	6432.308655	Steps:3 KeyPress:False Matched:False	1	3	false	false	Correct	false	n/a	n-backMarkers
628.296602	0.012000	dropped_samples	6433.181843	Dropped 3 samples	n/a	n/a	n/a	n/a	n/a	n/a	3	UoHDataOffsetStream
629.124334	0.000000	3-back	6434.009574	Steps:3 KeyPress:False Matched:False	1	3	false	false	Correct	false	n/a	n-backMarkers
630.825240	0.000000	3-back	6435.710481	Steps:3 KeyPress:True Matched:False	0	3	true	false	Wrong	false	n/a	n-backMarkers
632.526247	0.000000	3-back	6437.411488	Steps:3 KeyPress:False Matched:True	0	3	false	true	Wrong	false	n/a	n-backMarkers
634.228132	0.000000	3-back	6439.113373	Steps:3 KeyPress:False Matched:False	1	3	false	false	Correct	false	n/a	n-backMarkers
635.929177	0.000000	3-back	6440.814418	Steps:3 KeyPress:False Matched:False	1	3	false	false	Correct	false	n/a	n-backMarkers
637.630546	0.000000	3-back	6442.515787	Steps:3 KeyPress:False Matched:False	1	3	false	false	Correct	false	n/a	n-backMarkers
638.629787	0.012000	dropped_samples	6443.515028	Dropped 3 samples	n/a	n/a	n/a	n/a	n/a	n/a	3	UoHDataOffsetStream
639.331897	0.000000	3-back	6444.217137	Steps:3 KeyPress:True Matched:False	0	3	true	false	Wrong	false	n/a	n-backMarkers
640.143250	0.012000	dropped_samples	6445.028490	Dropped 3 samples	n/a	n/a	n/a	n/a	n/a	n/a	3	UoHDataOffsetStream
641.032304	0.000000	3-back	6445.917544	Steps:3 KeyPress:False Matched:False	1	3	false	false	Correct	false	n/a	n-backMarkers
642.732481	0.000000	3-back	6447.617721	Steps:3 KeyPress:False Matched:False	1	3	false	false	Correct	false	n/a	n-backMarkers
644.434156	0.000000	3-back	6449.319397	Steps:3 KeyPress:False Matched:False	1	3	false	false	Correct	false	n/a	n-backMarkers
645.065200	0.012000	dropped_samples	6449.950441	Dropped 3 samples	n/a	n/a	n/a	n/a	n/a	n/a	3	UoHDataOffsetStream
645.690281	0.012000	dropped_samples	6450.575522	Dropped 3 samples	n/a	n/a	n/a	n/a	n/a	n/a	3	UoHDataOffsetStream
646.135221	0.000000	3-back	6451.020462	Steps:3 KeyPress:False Matched:False	1	3	false	false	Correct	false	n/a	n-backMarkers
646.285897	0.004000	dropped_samples	6451.171137	Dropped 1 samples	n/a	n/a	n/a	n/a	n/a	n/a	1	UoHDataOffsetStream
647.836315	0.000000	3-back	6452.721556	Steps:3 KeyPress:False Matched:False	1	3	false	false	Correct	false	n/a	n-backMarkers
649.537664	0.000000	3-back	6454.422905	Steps:3 KeyPress:False Matched:False	1	3	false	false	Correct	false	n/a	n-backMarkers
650.153098	0.004000	dropped_samples	6455.038339	Dropped 1 samples	n/a	n/a	n/a	n/a	n/a	n/a	1	UoHDataOffsetStream
650.367908	0.004000	dropped_samples	6455.253149	Dropped 1 samples	n/a	n/a	n/a	n/a	n/a	n/a	1	UoHDataOffsetStream
651.238887	0.000000	3-back	6456.124127	Steps:3 KeyPress:True Matched:False	0	3	true	false	Wrong	false	n/a	n-backMarkers
652.433373	0.004000	dropped_samples	6457.318613	Dropped 1 samples	n/a	n/a	n/a	n/a	n/a	n/a	1	UoHDataOffsetStream
652.745856	0.008000	dropped_samples	6457.631097	Dropped 2 samples	n/a	n/a	n/a	n/a	n/a	n/a	2	UoHDataOffsetStream
652.940376	0.000000	3-back	6457.825617	Steps:3 KeyPress:False Matched:False	1	3	false	false	Correct	false	n/a	n-backMarkers
654.642057	0.000000	3-back	6459.527298	Steps:3 KeyPress:False Matched:False	1	3	false	false	Correct	false	n/a	n-backMarkers
655.719483	0.008000	dropped_samples	6460.604724	Dropped 2 samples	n/a	n/a	n/a	n/a	n/a	n/a	2	UoHDataOffsetStream
656.344215	0.000000	3-back	6461.229456	Steps:3 KeyPress:True Matched:False	0	3	true	false	Wrong	false	n/a	n-backMarkers
657.736114	0.008000	dropped_samples	6462.621355	Dropped 2 samples	n/a	n/a	n/a	n/a	n/a	n/a	2	UoHDataOffsetStream
658.045352	0.000000	3-back	6462.930593	Steps:3 KeyPress:False Matched:False	1	3	false	false	Correct	false	n/a	n-backMarkers
659.746522	0.000000	3-back	6464.631763	Steps:3 KeyPress:False Matched:False	1	3	false	false	Correct	false	n/a	n-backMarkers
660.758570	0.012000	dropped_samples	6465.643811	Dropped 3 samples	n/a	n/a	n/a	n/a	n/a	n/a	3	UoHDataOffsetStream
661.448176	0.000000	3-back	6466.333417	Steps:3 KeyPress:False Matched:False	1	3	false	false	Correct	false	n/a	n-backMarkers
663.149294	0.000000	3-back	6468.034535	Steps:3 KeyPress:False Matched:False	1	3	false	false	Correct	false	n/a	n-backMarkers
664.000798	0.004000	dropped_samples	6468.886038	Dropped 1 samples	n/a	n/a	n/a	n/a	n/a	n/a	1	UoHDataOffsetStream
664.850398	0.000000	3-back	6469.735639	Steps:3 KeyPress:True Matched:False	0	3	true	false	Wrong	false	n/a	n-backMarkers
666.551215	0.000000	3-back	6471.436456	Steps:3 KeyPress:False Matched:False	1	3	false	false	Correct	false	n/a	n-backMarkers
667.262564	0.008000	dropped_samples	6472.147804	Dropped 2 samples	n/a	n/a	n/a	n/a	n/a	n/a	2	UoHDataOffsetStream
668.251701	0.000000	3-back	6473.136941	Steps:3 KeyPress:False Matched:True	0	3	false	true	Wrong	false	n/a	n-backMarkers
669.210739	0.004000	dropped_samples	6474.095980	Dropped 1 samples	n/a	n/a	n/a	n/a	n/a	n/a	1	UoHDataOffsetStream
669.953077	0.000000	3-back	6474.838318	Steps:3 KeyPress:False Matched:False	1	3	false	false	Correct	false	n/a	n-backMarkers
670.241040	0.012000	dropped_samples	6475.126280	Dropped 3 samples	n/a	n/a	n/a	n/a	n/a	n/a	3	UoHDataOffsetStream
671.654459	0.000000	3-back	6476.539699	Steps:3 KeyPress:False Matched:False	1	3	false	false	Correct	false	n/a	n-backMarkers
673.170722	0.004000	dropped_samples	6478.055963	Dropped 1 samples	n/a	n/a	n/a	n/a	n/a	n/a	1	UoHDataOffsetStream
673.354466	0.000000	3-back	6478.239706	Steps:3 KeyPress:False Matched:True	0	3	false	true	Wrong	false	n/a	n-backMarkers
675.055906	0.000000	3-back	6479.941146	Steps:3 KeyPress:True Matched:False	0	3	true	false	Wrong	false	n/a	n-backMarkers
676.756047	0.000000	3-back	6481.641287	Steps:3 KeyPress:False Matched:False	1	3	false	false	Correct	false	n/a	n-backMarkers
678.456807	0.000000	3-back	6483.342048	Steps:3 KeyPress:False Matched:False	1	3	false	false	Correct	false	n/a	n-backMarkers
680.158142	0.000000	3-back	6485.043383	Steps:3 KeyPress:False Matched:False	1	3	false	false	Correct	false	n/a	n-backMarkers
681.859293	0.000000	3-back	6486.744534	Steps:3 KeyPress:False Matched:True	0	3	false	true	Wrong	false	n/a	n-backMarkers
683.560246	0.000000	3-back	6488.445487	Steps:3 KeyPress:False Matched:False	1	3	false	false	Correct	false	n/a	n-backMarkers
685.261917	0.000000	3-back	6490.147157	Steps:3 KeyPress:False Matched:False	1	3	false	false	Correct	false	n/a	n-backMarkers
686.961985	0.000000	3-back	6491.847226	Steps:3 KeyPress:False Matched:False	1	3	false	false	Correct	false	n/a	n-backMarkers
687.858301	0.008000	dropped_samples	6492.743541	Dropped 2 samples	n/a	n/a	n/a	n/a	n/a	n/a	2	UoHDataOffsetStream
688.662851	0.000000	3-back	6493.548092	Steps:3 KeyPress:False Matched:False	1	3	false	false	Correct	false	n/a	n-backMarkers
689.777231	0.004000	dropped_samples	6494.662472	Dropped 1 samples	n/a	n/a	n/a	n/a	n/a	n/a	1	UoHDataOffsetStream
690.364111	0.000000	3-back	6495.249352	Steps:3 KeyPress:False Matched:True	0	3	false	true	Wrong	false	n/a	n-backMarkers
690.880739	0.008000	dropped_samples	6495.765979	Dropped 2 samples	n/a	n/a	n/a	n/a	n/a	n/a	2	UoHDataOffsetStream
692.064911	0.000000	3-back	6496.950152	Steps:3 KeyPress:False Matched:False	1	3	false	false	Correct	false	n/a	n-backMarkers
693.766212	0.000000	3-back	6498.651453	Steps:3 KeyPress:False Matched:False	1	3	false	false	Correct	false	n/a	n-backMarkers
695.466993	0.000000	3-back	6500.352234	Steps:3 KeyPress:False Matched:False	1	3	false	false	Correct	false	n/a	n-backMarkers
695.753862	0.004000	dropped_samples	6500.639103	Dropped 1 samples	n/a	n/a	n/a	n/a	n/a	n/a	1	UoHDataOffsetStream
696.265489	0.008000	dropped_samples	6501.150730	Dropped 2 samples	n/a	n/a	n/a	n/a	n/a	n/a	2	UoHDataOffsetStream
696.954982	0.008000	dropped_samples	6501.840223	Dropped 2 samples	n/a	n/a	n/a	n/a	n/a	n/a	2	UoHDataOffsetStream
697.167986	0.000000	3-back	6502.053227	Steps:3 KeyPress:True Matched:False	0	3	true	false	Wrong	false	n/a	n-backMarkers
698.868927	0.000000	3-back	6503.754168	Steps:3 KeyPress:False Matched:False	1	3	false	false	Correct	false	n/a	n-backMarkers
699.518475	0.004000	dropped_samples	6504.403716	Dropped 1 samples	n/a	n/a	n/a	n/a	n/a	n/a	1	UoHDataOffsetStream
700.569240	0.000000	3-back	6505.454481	Steps:3 KeyPress:False Matched:False	1	3	false	false	Correct	false	n/a	n-backMarkers
701.295768	0.004000	dropped_samples	6506.181009	Dropped 1 samples	n/a	n/a	n/a	n/a	n/a	n/a	1	UoHDataOffsetStream
702.270833	0.000000	3-back	6507.156073	Steps:3 KeyPress:False Matched:False	1	3	false	false	Correct	false	n/a	n-backMarkers
703.970929	0.000000	3-back	6508.856169	Steps:3 KeyPress:True Matched:False	0	3	true	false	Wrong	false	n/a	n-backMarkers
705.378026	0.012000	dropped_samples	6510.263267	Dropped 3 samples	n/a	n/a	n/a	n/a	n/a	n/a	3	UoHDataOffsetStream
705.617138	0.004000	dropped_samples	6510.502379	Dropped 1 samples	n/a	n/a	n/a	n/a	n/a	n/a	1	UoHDataOffsetStream
705.671099	0.000000	3-back	6510.556339	Steps:3 KeyPress:False Matched:True	0	3	false	true	Wrong	false	n/a	n-backMarkers
706.911085	0.004000	dropped_samples	6511.796326	Dropped 1 samples	n/a	n/a	n/a	n/a	n/a	n/a	1	UoHDataOffsetStream
707.372921	0.000000	3-back	6512.258162	Steps:3 KeyPress:False Matched:False	1	3	false	false	Correct	false	n/a	n-backMarkers
709.075122	0.000000	3-back	6513.960363	Steps:3 KeyPress:False Matched:False	1	3	false	false	Correct	false	n/a	n-backMarkers
710.776991	0.000000	3-back	6515.662232	Steps:3 KeyPress:False Matched:True	0	3	false	true	Wrong	false	n/a	n-backMarkers
712.477143	0.000000	3-back	6517.362384	Steps:3 KeyPress:True Matched:True	1	3	true	true	Correct	false	n/a	n-backMarkers
714.178187	0.000000	3-back	6519.063428	Steps:3 KeyPress:False Matched:False	1	3	false	false	Correct	false	n/a	n-backMarkers
715.879043	0.000000	3-back	6520.764283	Steps:3 KeyPress:False Matched:False	1	3	false	false	Correct	false	n/a	n-backMarkers
716.754886	0.008000	dropped_samples	6521.640127	Dropped 2 samples	n/a	n/a	n/a	n/a	n/a	n/a	2	UoHDataOffsetStream
717.579988	0.000000	3-back	6522.465229	Steps:3 KeyPress:False Matched:False	1	3	false	false	Correct	false	n/a	n-backMarkers
719.280229	0.000000	3-back	6524.165470	Steps:3 KeyPress:True Matched:False	0	3	true	false	Wrong	false	n/a	n-backMarkers
720.016547	0.004000	dropped_samples	6524.901787	Dropped 1 samples	n/a	n/a	n/a	n/a	n/a	n/a	1	UoHDataOffsetStream
720.304657	0.004000	dropped_samples	6525.189898	Dropped 1 samples	n/a	n/a	n/a	n/a	n/a	n/a	1	UoHDataOffsetStream
720.982580	0.000000	3-back	6525.867820	Steps:3 KeyPress:False Matched:False	1	3	false	false	Correct	false	n/a	n-backMarkers
722.683922	0.000000	3-back	6527.569163	Steps:3 KeyPress:False Matched:False	1	3	false	false	Correct	false	n/a	n-backMarkers
724.384701	0.000000	3-back	6529.269941	Steps:3 KeyPress:True Matched:False	0	3	true	false	Wrong	false	n/a	n-backMarkers
726.086149	0.000000	3-back	6530.971390	Steps:3 KeyPress:False Matched:True	0	3	false	true	Wrong	false	n/a	n-backMarkers
727.506941	0.008000	dropped_samples	6532.392182	Dropped 2 samples	n/a	n/a	n/a	n/a	n/a	n/a	2	UoHDataOffsetStream
727.787190	0.000000	3-back	6532.672431	Steps:3 KeyPress:False Matched:False	1	3	false	false	Correct	false	n/a	n-backMarkers
728.346829	0.004000	dropped_samples	6533.232070	Dropped 1 samples	n/a	n/a	n/a	n/a	n/a	n/a	1	UoHDataOffsetStream
729.489216	0.000000	3-back	6534.374457	Steps:3 KeyPress:False Matched:False	1	3	false	false	Correct	false	n/a	n-backMarkers
731.190978	0.000000	3-back	6536.076219	Steps:3 KeyPress:False Matched:False	1	3	false	false	Correct	false	n/a	n-backMarkers
731.583988	0.004000	dropped_samples	6536.469229	Dropped 1 samples	n/a	n/a	n/a	n/a	n/a	n/a	1	UoHDataOffsetStream
732.892092	0.000000	3-back	6537.777333	Steps:3 KeyPress:True Matched:False	0	3	true	false	Wrong	false	n/a	n-backMarkers
734.593279	0.000000	3-back	6539.478520	Steps:3 KeyPress:False Matched:True	0	3	false	true	Wrong	false	n/a	n-backMarkers
735.905309	0.004000	dropped_samples	6540.790550	Dropped 1 samples	n/a	n/a	n/a	n/a	n/a	n/a	1	UoHDataOffsetStream
736.293881	0.000000	3-back	6541.179122	Steps:3 KeyPress:False Matched:False	1	3	false	false	Correct	false	n/a	n-backMarkers
737.848710	0.008000	dropped_samples	6542.733951	Dropped 2 samples	n/a	n/a	n/a	n/a	n/a	n/a	2	UoHDataOffsetStream
737.995024	0.000000	3-back	6542.880265	Steps:3 KeyPress:True Matched:False	0	3	true	false	Wrong	false	n/a	n-backMarkers
739.696028	0.000000	3-back	6544.581269	Steps:3 KeyPress:False Matched:False	1	3	false	false	Correct	false	n/a	n-backMarkers
740.343772	0.004000	dropped_samples	6545.229013	Dropped 1 samples	n/a	n/a	n/a	n/a	n/a	n/a	1	UoHDataOffsetStream
741.330166	0.012000	dropped_samples	6546.215407	Dropped 3 samples	n/a	n/a	n/a	n/a	n/a	n/a	3	UoHDataOffsetStream
741.396168	0.000000	3-back	6546.281409	Steps:3 KeyPress:False Matched:False	1	3	false	false	Correct	false	n/a	n-backMarkers
742.482488	0.004000	dropped_samples	6547.367729	Dropped 1 samples	n/a	n/a	n/a	n/a	n/a	n/a	1	UoHDataOffsetStream
743.097267	0.000000	3-back	6547.982507	Steps:3 KeyPress:False Matched:True	0	3	false	true	Wrong	false	n/a	n-backMarkers
743.703168	0.012000	dropped_samples	6548.588408	Dropped 3 samples	n/a	n/a	n/a	n/a	n/a	n/a	3	UoHDataOffsetStream
744.798721	0.000000	3-back	6549.683962	Steps:3 KeyPress:False Matched:False	1	3	false	false	Correct	false	n/a	n-backMarkers
746.499295	0.000000	3-back	6551.384536	Steps:3 KeyPress:False Matched:False	1	3	false	false	Correct	false	n/a	n-backMarkers
747.882916	0.012000	dropped_samples	6552.768157	Dropped 3 samples	n/a	n/a	n/a	n/a	n/a	n/a	3	UoHDataOffsetStream
748.200208	0.000000	3-back	6553.085448	Steps:3 KeyPress:False Matched:False	1	3	false	false	Correct	false	n/a	n-backMarkers
749.875100	0.012000	dropped_samples	6554.760340	Dropped 3 samples	n/a	n/a	n/a	n/a	n/a	n/a	3	UoHDataOffsetStream
749.901040	0.000000	3-back	6554.786281	Steps:3 KeyPress:False Matched:False	1	3	false	false	Correct	false	n/a	n-backMarkers
751.602150	0.000000	3-back	6556.487391	Steps:3 KeyPress:True Matched:False	0	3	true	false	Wrong	false	n/a	n-backMarkers
752.731515	0.008000	dropped_samples	6557.616755	Dropped 2 samples	n/a	n/a	n/a	n/a	n/a	n/a	2	UoHDataOffsetStream
752.986128	0.012000	dropped_samples	6557.871368	Dropped 3 samples	n/a	n/a	n/a	n/a	n/a	n/a	3	UoHDataOffsetStream
753.019637	0.012000	dropped_samples	6557.904878	Dropped 3 samples	n/a	n/a	n/a	n/a	n/a	n/a	3	UoHDataOffsetStream
753.303855	0.000000	3-back	6558.189096	Steps:3 KeyPress:False Matched:False	1	3	false	false	Correct	false	n/a	n-backMarkers
755.005026	0.000000	3-back	6559.890267	Steps:3 KeyPress:False Matched:False	1	3	false	false	Correct	false	n/a	n-backMarkers
756.706421	0.000000	3-back	6561.591661	Steps:3 KeyPress:False Matched:False	1	3	false	false	Correct	false	n/a	n-backMarkers
758.407134	0.000000	3-back	6563.292375	Steps:3 KeyPress:True Matched:False	0	3	true	false	Wrong	false	n/a	n-backMarkers
760.108168	0.000000	3-back	6564.993409	Steps:3 KeyPress:False Matched:True	0	3	false	true	Wrong	false	n/a	n-backMarkers
761.809038	0.000000	3-back	6566.694279	Steps:3 KeyPress:False Matched:False	1	3	false	false	Correct	false	n/a	n-backMarkers
763.510063	0.000000	3-back	6568.395304	Steps:3 KeyPress:False Matched:False	1	3	false	false	Correct	false	n/a	n-backMarkers
765.210228	0.000000	3-back	6570.095468	Steps:3 KeyPress:False Matched:False	1	3	false	false	Correct	false	n/a	n-backMarkers
765.666133	0.008000	dropped_samples	6570.551373	Dropped 2 samples	n/a	n/a	n/a	n/a	n/a	n/a	2	UoHDataOffsetStream
766.911967	0.000000	3-back	6571.797208	Steps:3 KeyPress:True Matched:False	0	3	true	false	Wrong	false	n/a	n-backMarkers
768.449574	0.004000	dropped_samples	6573.334815	Dropped 1 samples	n/a	n/a	n/a	n/a	n/a	n/a	1	UoHDataOffsetStream
768.613175	0.000000	3-back	6573.498416	Steps:3 KeyPress:False Matched:True	0	3	false	true	Wrong	false	n/a	n-backMarkers
769.028830	0.024000	dropped_samples	6573.914070	Dropped 6 samples	n/a	n/a	n/a	n/a	n/a	n/a	6	UoHDataOffsetStream
773.727641	0.004000	dropped_samples	6578.612882	Dropped 1 samples	n/a	n/a	n/a	n/a	n/a	n/a	1	UoHDataOffsetStream
774.470495	0.012000	dropped_samples	6579.355736	Dropped 3 samples	n/a	n/a	n/a	n/a	n/a	n/a	3	UoHDataOffsetStream
774.499198	0.008000	dropped_samples	6579.384438	Dropped 2 samples	n/a	n/a	n/a	n/a	n/a	n/a	2	UoHDataOffsetStream
775.529470	0.004000	dropped_samples	6580.414711	Dropped 1 samples	n/a	n/a	n/a	n/a	n/a	n/a	1	UoHDataOffsetStream
777.111479	0.004000	dropped_samples	6581.996719	Dropped 1 samples	n/a	n/a	n/a	n/a	n/a	n/a	1	UoHDataOffsetStream
777.329959	0.000000	4-back	6582.215200	Steps:4 KeyPress:False Matched:False	1	4	false	false	Correct	false	n/a	n-backMarkers
779.031194	0.000000	4-back	6583.916434	Steps:4 KeyPress:False Matched:False	1	4	false	false	Correct	false	n/a	n-backMarkers
780.065701	0.012000	dropped_samples	6584.950941	Dropped 3 samples	n/a	n/a	n/a	n/a	n/a	n/a	3	UoHDataOffsetStream
780.732007	0.000000	4-back	6585.617248	Steps:4 KeyPress:False Matched:False	1	4	false	false	Correct	false	n/a	n-backMarkers
781.554860	0.004000	dropped_samples	6586.440100	Dropped 1 samples	n/a	n/a	n/a	n/a	n/a	n/a	1	UoHDataOffsetStream
782.432394	0.000000	4-back	6587.317635	Steps:4 KeyPress:False Matched:True	0	4	false	true	Wrong	false	n/a	n-backMarkers
783.332214	0.004000	dropped_samples	6588.217455	Dropped 1 samples	n/a	n/a	n/a	n/a	n/a	n/a	1	UoHDataOffsetStream
784.133336	0.000000	4-back	6589.018577	Steps:4 KeyPress:False Matched:False	1	4	false	false	Correct	false	n/a	n-backMarkers
784.313675	0.004000	dropped_samples	6589.198916	Dropped 1 samples	n/a	n/a	n/a	n/a	n/a	n/a	1	UoHDataOffsetStream
784.460286	0.004000	dropped_samples	6589.345526	Dropped 1 samples	n/a	n/a	n/a	n/a	n/a	n/a	1	UoHDataOffsetStream
785.834227	0.000000	4-back	6590.719467	Steps:4 KeyPress:False Matched:True	0	4	false	true	Wrong	false	n/a	n-backMarkers
787.267743	0.004000	dropped_samples	6592.152984	Dropped 1 samples	n/a	n/a	n/a	n/a	n/a	n/a	1	UoHDataOffsetStream
787.535076	0.000000	4-back	6592.420317	Steps:4 KeyPress:False Matched:False	1	4	false	false	Correct	false	n/a	n-backMarkers
789.236186	0.000000	4-back	6594.121427	Steps:4 KeyPress:False Matched:False	1	4	false	false	Correct	false	n/a	n-backMarkers
790.938270	0.000000	4-back	6595.823510	Steps:4 KeyPress:False Matched:False	1	4	false	false	Correct	false	n/a	n-backMarkers
792.639065	0.000000	4-back	6597.524306	Steps:4 KeyPress:False Matched:True	0	4	false	true	Wrong	false	n/a	n-backMarkers
794.339379	0.000000	4-back	6599.224620	Steps:4 KeyPress:True Matched:False	0	4	true	false	Wrong	false	n/a	n-backMarkers
796.041711	0.000000	4-back	6600.926952	Steps:4 KeyPress:False Matched:True	0	4	false	true	Wrong	false	n/a	n-backMarkers
796.960154	0.004000	dropped_samples	6601.845395	Dropped 1 samples	n/a	n/a	n/a	n/a	n/a	n/a	1	UoHDataOffsetStream
797.742551	0.000000	4-back	6602.627792	Steps:4 KeyPress:False Matched:False	1	4	false	false	Correct	false	n/a	n-backMarkers
798.161374	0.004000	dropped_samples	6603.046615	Dropped 1 samples	n/a	n/a	n/a	n/a	n/a	n/a	1	UoHDataOffsetStream
799.443228	0.000000	4-back	6604.328469	Steps:4 KeyPress:False Matched:False	1	4	false	false	Correct	false	n/a	n-backMarkers
799.963142	0.004000	dropped_samples	6604.848383	Dropped 1 samples	n/a	n/a	n/a	n/a	n/a	n/a	1	UoHDataOffsetStream
801.017816	0.004000	dropped_samples	6605.903057	Dropped 1 samples	n/a	n/a	n/a	n/a	n/a	n/a	1	UoHDataOffsetStream
801.144125	0.000000	4-back	6606.029366	Steps:4 KeyPress:False Matched:False	1	4	false	false	Correct	false	n/a	n-backMarkers
802.243400	0.004000	dropped_samples	6607.128641	Dropped 1 samples	n/a	n/a	n/a	n/a	n/a	n/a	1	UoHDataOffsetStream
802.844479	0.000000	4-back	6607.729719	Steps:4 KeyPress:True Matched:True	1	4	true	true	Correct	false	n/a	n-backMarkers
804.546129	0.000000	4-back	6609.431369	Steps:4 KeyPress:False Matched:True	0	4	false	true	Wrong	false	n/a	n-backMarkers
806.246897	0.000000	4-back	6611.132138	Steps:4 KeyPress:False Matched:False	1	4	false	false	Correct	false	n/a	n-backMarkers
807.946958	0.000000	4-back	6612.832199	Steps:4 KeyPress:False Matched:False	1	4	false	false	Correct	false	n/a	n-backMarkers
808.122371	0.004000	dropped_samples	6613.007612	Dropped 1 samples	n/a	n/a	n/a	n/a	n/a	n/a	1	UoHDataOffsetStream
809.201435	0.004000	dropped_samples	6614.086676	Dropped 1 samples	n/a	n/a	n/a	n/a	n/a	n/a	1	UoHDataOffsetStream
809.648774	0.000000	4-back	6614.534014	Steps:4 KeyPress:False Matched:False	1	4	false	false	Correct	false	n/a	n-backMarkers
811.350632	0.000000	4-back	6616.235872	Steps:4 KeyPress:True Matched:True	1	4	true	true	Correct	false	n/a	n-backMarkers
813.050556	0.000000	4-back	6617.935797	Steps:4 KeyPress:False Matched:True	0	4	false	true	Wrong	false	n/a	n-backMarkers
814.751691	0.000000	4-back	6619.636931	Steps:4 KeyPress:True Matched:False	0	4	true	false	Wrong	false	n/a	n-backMarkers
816.452219	0.000000	4-back	6621.337460	Steps:4 KeyPress:False Matched:False	1	4	false	false	Correct	false	n/a	n-backMarkers
817.433979	0.004000	dropped_samples	6622.319220	Dropped 1 samples	n/a	n/a	n/a	n/a	n/a	n/a	1	UoHDataOffsetStream
818.154150	0.000000	4-back	6623.039391	Steps:4 KeyPress:False Matched:False	1	4	false	false	Correct	false	n/a	n-backMarkers
818.156722	0.004000	dropped_samples	6623.041962	Dropped 1 samples	n/a	n/a	n/a	n/a	n/a	n/a	1	UoHDataOffsetStream
819.854953	0.000000	4-back	6624.740194	Steps:4 KeyPress:False Matched:True	0	4	false	true	Wrong	false	n/a	n-backMarkers
819.953424	0.012000	dropped_samples	6624.838665	Dropped 3 samples	n/a	n/a	n/a	n/a	n/a	n/a	3	UoHDataOffsetStream
821.556054	0.000000	4-back	6626.441295	Steps:4 KeyPress:True Matched:False	0	4	true	false	Wrong	false	n/a	n-backMarkers
823.257070	0.000000	4-back	6628.142311	Steps:4 KeyPress:False Matched:False	1	4	false	false	Correct	false	n/a	n-backMarkers
824.957385	0.000000	4-back	6629.842626	Steps:4 KeyPress:False Matched:False	1	4	false	false	Correct	false	n/a	n-backMarkers
826.555019	0.004000	dropped_samples	6631.440260	Dropped 1 samples	n/a	n/a	n/a	n/a	n/a	n/a	1	UoHDataOffsetStream
826.659164	0.000000	4-back	6631.544405	Steps:4 KeyPress:False Matched:True	0	4	false	true	Wrong	false	n/a	n-backMarkers
827.800215	0.004000	dropped_samples	6632.685455	Dropped 1 samples	n/a	n/a	n/a	n/a	n/a	n/a	1	UoHDataOffsetStream
828.359849	0.000000	4-back	6633.245089	Steps:4 KeyPress:False Matched:False	1	4	false	false	Correct	false	n/a	n-backMarkers
830.060354	0.000000	4-back	6634.945595	Steps:4 KeyPress:False Matched:False	1	4	false	false	Correct	false	n/a	n-backMarkers
831.760865	0.000000	4-back	6636.646106	Steps:4 KeyPress:False Matched:False	1	4	false	false	Correct	false	n/a	n-backMarkers
833.462376	0.000000	4-back	6638.347617	Steps:4 KeyPress:True Matched:True	1	4	true	true	Correct	false	n/a	n-backMarkers
835.163098	0.000000	4-back	6640.048339	Steps:4 KeyPress:False Matched:False	1	4	false	false	Correct	false	n/a	n-backMarkers
836.864210	0.000000	4-back	6641.749451	Steps:4 KeyPress:False Matched:False	1	4	false	false	Correct	false	n/a	n-backMarkers
837.282655	0.008000	dropped_samples	6642.167895	Dropped 2 samples	n/a	n/a	n/a	n/a	n/a	n/a	2	UoHDataOffsetStream
837.685159	0.004000	dropped_samples	6642.570400	Dropped 1 samples	n/a	n/a	n/a	n/a	n/a	n/a	1	UoHDataOffsetStream
838.566145	0.000000	4-back	6643.451386	Steps:4 KeyPress:False Matched:False	1	4	false	false	Correct	false	n/a	n-backMarkers
839.538496	0.008000	dropped_samples	6644.423737	Dropped 2 samples	n/a	n/a	n/a	n/a	n/a	n/a	2	UoHDataOffsetStream
840.114623	0.008000	dropped_samples	6644.999864	Dropped 2 samples	n/a	n/a	n/a	n/a	n/a	n/a	2	UoHDataOffsetStream
840.267236	0.000000	4-back	6645.152476	Steps:4 KeyPress:False Matched:False	1	4	false	false	Correct	false	n/a	n-backMarkers
841.968128	0.000000	4-back	6646.853369	Steps:4 KeyPress:False Matched:False	1	4	false	false	Correct	false	n/a	n-backMarkers
843.669057	0.000000	4-back	6648.554298	Steps:4 KeyPress:True Matched:False	0	4	true	false	Wrong	false	n/a	n-backMarkers
845.370161	0.000000	4-back	6650.255402	Steps:4 KeyPress:False Matched:True	0	4	false	true	Wrong	false	n/a	n-backMarkers
846.164463	0.004000	dropped_samples	6651.049704	Dropped 1 samples	n/a	n/a	n/a	n/a	n/a	n/a	1	UoHDataOffsetStream
847.004302	0.004000	dropped_samples	6651.889543	Dropped 1 samples	n/a	n/a	n/a	n/a	n/a	n/a	1	UoHDataOffsetStream
847.072085	0.000000	4-back	6651.957325	Steps:4 KeyPress:False Matched:False	1	4	false	false	Correct	false	n/a	n-backMarkers
848.773025	0.000000	4-back	6653.658266	Steps:4 KeyPress:False Matched:False	1	4	false	false	Correct	false	n/a	n-backMarkers
849.978036	0.008000	dropped_samples	6654.863277	Dropped 2 samples	n/a	n/a	n/a	n/a	n/a	n/a	2	UoHDataOffsetStream
850.474381	0.000000	4-back	6655.359622	Steps:4 KeyPress:False Matched:False	1	4	false	false	Correct	false	n/a	n-backMarkers
850.768973	0.004000	dropped_samples	6655.654214	Dropped 1 samples	n/a	n/a	n/a	n/a	n/a	n/a	1	UoHDataOffsetStream
852.175219	0.000000	4-back	6657.060460	Steps:4 KeyPress:True Matched:True	1	4	true	true	Correct	false	n/a	n-backMarkers
853.876225	0.000000	4-back	6658.761466	Steps:4 KeyPress:False Matched:True	0	4	false	true	Wrong	false	n/a	n-backMarkers
855.329527	0.012000	dropped_samples	6660.214768	Dropped 3 samples	n/a	n/a	n/a	n/a	n/a	n/a	3	UoHDataOffsetStream
855.577247	0.000000	4-back	6660.462488	Steps:4 KeyPress:False Matched:False	1	4	false	false	Correct	false	n/a	n-backMarkers
855.856917	0.004000	dropped_samples	6660.742158	Dropped 1 samples	n/a	n/a	n/a	n/a	n/a	n/a	1	UoHDataOffsetStream
856.158693	0.008000	dropped_samples	6661.043934	Dropped 2 samples	n/a	n/a	n/a	n/a	n/a	n/a	2	UoHDataOffsetStream
856.193832	0.004000	dropped_samples	6661.079073	Dropped 1 samples	n/a	n/a	n/a	n/a	n/a	n/a	1	UoHDataOffsetStream
857.278284	0.000000	4-back	6662.163525	Steps:4 KeyPress:True Matched:False	0	4	true	false	Wrong	false	n/a	n-backMarkers
858.068776	0.008000	dropped_samples	6662.954017	Dropped 2 samples	n/a	n/a	n/a	n/a	n/a	n/a	2	UoHDataOffsetStream
858.979134	0.000000	4-back	6663.864375	Steps:4 KeyPress:False Matched:False	1	4	false	false	Correct	false	n/a	n-backMarkers
860.679880	0.000000	4-back	6665.565120	Steps:4 KeyPress:False Matched:True	0	4	false	true	Wrong	false	n/a	n-backMarkers
862.072726	0.012000	dropped_samples	6666.957967	Dropped 3 samples	n/a	n/a	n/a	n/a	n/a	n/a	3	UoHDataOffsetStream
862.380877	0.000000	4-back	6667.266117	Steps:4 KeyPress:True Matched:True	1	4	true	true	Correct	false	n/a	n-backMarkers
864.081859	0.000000	4-back	6668.967100	Steps:4 KeyPress:False Matched:False	1	4	false	false	Correct	false	n/a	n-backMarkers
865.783014	0.000000	4-back	6670.668255	Steps:4 KeyPress:False Matched:False	1	4	false	false	Correct	false	n/a	n-backMarkers
866.081524	0.012000	dropped_samples	6670.966765	Dropped 3 samples	n/a	n/a	n/a	n/a	n/a	n/a	3	UoHDataOffsetStream
867.484900	0.000000	4-back	6672.370141	Steps:4 KeyPress:False Matched:False	1	4	false	false	Correct	false	n/a	n-backMarkers
867.785635	0.008000	dropped_samples	6672.670876	Dropped 2 samples	n/a	n/a	n/a	n/a	n/a	n/a	2	UoHDataOffsetStream
869.185163	0.000000	4-back	6674.070404	Steps:4 KeyPress:False Matched:True	0	4	false	true	Wrong	false	n/a	n-backMarkers
870.885705	0.000000	4-back	6675.770946	Steps:4 KeyPress:False Matched:True	0	4	false	true	Wrong	false	n/a	n-backMarkers
872.586266	0.000000	4-back	6677.471506	Steps:4 KeyPress:False Matched:False	1	4	false	false	Correct	false	n/a	n-backMarkers
874.287289	0.000000	4-back	6679.172529	Steps:4 KeyPress:False Matched:False	1	4	false	false	Correct	false	n/a	n-backMarkers
874.938971	0.004000	dropped_samples	6679.824212	Dropped 1 samples	n/a	n/a	n/a	n/a	n/a	n/a	1	UoHDataOffsetStream
875.988972	0.000000	4-back	6680.874212	Steps:4 KeyPress:False Matched:False	1	4	false	false	Correct	false	n/a	n-backMarkers
876.164610	0.004000	dropped_samples	6681.049851	Dropped 1 samples	n/a	n/a	n/a	n/a	n/a	n/a	1	UoHDataOffsetStream
877.202480	0.004000	dropped_samples	6682.087720	Dropped 1 samples	n/a	n/a	n/a	n/a	n/a	n/a	1	UoHDataOffsetStream
877.690103	0.000000	4-back	6682.575344	Steps:4 KeyPress:False Matched:True	0	4	false	true	Wrong	false	n/a	n-backMarkers
879.391104	0.000000	4-back	6684.276344	Steps:4 KeyPress:True Matched:True	1	4	true	true	Correct	false	n/a	n-backMarkers
880.124538	0.004000	dropped_samples	6685.009779	Dropped 1 samples	n/a	n/a	n/a	n/a	n/a	n/a	1	UoHDataOffsetStream
880.842277	0.012000	dropped_samples	6685.727517	Dropped 3 samples	n/a	n/a	n/a	n/a	n/a	n/a	3	UoHDataOffsetStream
881.091962	0.000000	4-back	6685.977202	Steps:4 KeyPress:False Matched:False	1	4	false	false	Correct	false	n/a	n-backMarkers
882.793015	0.000000	4-back	6687.678255	Steps:4 KeyPress:True Matched:False	0	4	true	false	Wrong	false	n/a	n-backMarkers
882.932183	0.004000	dropped_samples	6687.817424	Dropped 1 samples	n/a	n/a	n/a	n/a	n/a	n/a	1	UoHDataOffsetStream
883.796424	0.012000	dropped_samples	6688.681665	Dropped 3 samples	n/a	n/a	n/a	n/a	n/a	n/a	3	UoHDataOffsetStream
884.493703	0.000000	4-back	6689.378944	Steps:4 KeyPress:False Matched:False	1	4	false	false	Correct	false	n/a	n-backMarkers
886.195085	0.000000	4-back	6691.080326	Steps:4 KeyPress:False Matched:True	0	4	false	true	Wrong	false	n/a	n-backMarkers
887.253447	0.008000	dropped_samples	6692.138688	Dropped 2 samples	n/a	n/a	n/a	n/a	n/a	n/a	2	UoHDataOffsetStream
887.896064	0.000000	4-back	6692.781305	Steps:4 KeyPress:False Matched:False	1	4	false	false	Correct	false	n/a	n-backMarkers
888.522971	0.012000	dropped_samples	6693.408212	Dropped 3 samples	n/a	n/a	n/a	n/a	n/a	n/a	3	UoHDataOffsetStream
889.596272	0.000000	4-back	6694.481513	Steps:4 KeyPress:False Matched:False	1	4	false	false	Correct	false	n/a	n-backMarkers
890.153853	0.004000	dropped_samples	6695.039094	Dropped 1 samples	n/a	n/a	n/a	n/a	n/a	n/a	1	UoHDataOffsetStream
890.612850	0.008000	dropped_samples	6695.498090	Dropped 2 samples	n/a	n/a	n/a	n/a	n/a	n/a	2	UoHDataOffsetStream
891.296568	0.000000	4-back	6696.181809	Steps:4 KeyPress:False Matched:True	0	4	false	true	Wrong	false	n/a	n-backMarkers
892.997236	0.000000	4-back	6697.882477	Steps:4 KeyPress:True Matched:False	0	4	true	false	Wrong	false	n/a	n-backMarkers
893.776893	0.004000	dropped_samples	6698.662134	Dropped 1 samples	n/a	n/a	n/a	n/a	n/a	n/a	1	UoHDataOffsetStream
894.698004	0.000000	4-back	6699.583245	Steps:4 KeyPress:False Matched:False	1	4	false	false	Correct	false	n/a	n-backMarkers
895.891162	0.012000	dropped_samples	6700.776402	Dropped 3 samples	n/a	n/a	n/a	n/a	n/a	n/a	3	UoHDataOffsetStream
896.398850	0.000000	4-back	6701.284090	Steps:4 KeyPress:False Matched:False	1	4	false	false	Correct	false	n/a	n-backMarkers
898.100227	0.000000	4-back	6702.985468	Steps:4 KeyPress:False Matched:True	0	4	false	true	Wrong	false	n/a	n-backMarkers
898.820852	0.012000	dropped_samples	6703.706093	Dropped 3 samples	n/a	n/a	n/a	n/a	n/a	n/a	3	UoHDataOffsetStream
899.109030	0.004000	dropped_samples	6703.994271	Dropped 1 samples	n/a	n/a	n/a	n/a	n/a	n/a	1	UoHDataOffsetStream
899.563060	0.004000	dropped_samples	6704.448301	Dropped 1 samples	n/a	n/a	n/a	n/a	n/a	n/a	1	UoHDataOffsetStream
899.802245	0.000000	4-back	6704.687485	Steps:4 KeyPress:False Matched:True	0	4	false	true	Wrong	false	n/a	n-backMarkers
901.503777	0.000000	4-back	6706.389018	Steps:4 KeyPress:False Matched:False	1	4	false	false	Correct	false	n/a	n-backMarkers
903.205264	0.000000	4-back	6708.090505	Steps:4 KeyPress:False Matched:False	1	4	false	false	Correct	false	n/a	n-backMarkers
904.221319	0.012000	dropped_samples	6709.106560	Dropped 3 samples	n/a	n/a	n/a	n/a	n/a	n/a	3	UoHDataOffsetStream
904.905505	0.000000	4-back	6709.790746	Steps:4 KeyPress:False Matched:False	1	4	false	false	Correct	false	n/a	n-backMarkers
905.681272	0.008000	dropped_samples	6710.566512	Dropped 2 samples	n/a	n/a	n/a	n/a	n/a	n/a	2	UoHDataOffsetStream
906.606887	0.000000	4-back	6711.492128	Steps:4 KeyPress:True Matched:True	1	4	true	true	Correct	false	n/a	n-backMarkers
908.307939	0.000000	4-back	6713.193180	Steps:4 KeyPress:False Matched:True	0	4	false	true	Wrong	false	n/a	n-backMarkers
910.008016	0.000000	4-back	6714.893257	Steps:4 KeyPress:False Matched:False	1	4	false	false	Correct	false	n/a	n-backMarkers
911.708840	0.000000	4-back	6716.594080	Steps:4 KeyPress:False Matched:False	1	4	false	false	Correct	false	n/a	n-backMarkers
913.409216	0.000000	4-back	6718.294457	Steps:4 KeyPress:False Matched:False	1	4	false	false	Correct	false	n/a	n-backMarkers
914.226318	0.004000	dropped_samples	6719.111558	Dropped 1 samples	n/a	n/a	n/a	n/a	n/a	n/a	1	UoHDataOffsetStream
915.110874	0.000000	4-back	6719.996114	Steps:4 KeyPress:False Matched:True	0	4	false	true	Wrong	false	n/a	n-backMarkers
915.715467	0.008000	dropped_samples	6720.600707	Dropped 2 samples	n/a	n/a	n/a	n/a	n/a	n/a	2	UoHDataOffsetStream
916.628557	0.004000	dropped_samples	6721.513798	Dropped 1 samples	n/a	n/a	n/a	n/a	n/a	n/a	1	UoHDataOffsetStream
916.812168	0.000000	4-back	6721.697409	Steps:4 KeyPress:False Matched:False	1	4	false	false	Correct	false	n/a	n-backMarkers
917.253540	0.008000	dropped_samples	6722.138780	Dropped 2 samples	n/a	n/a	n/a	n/a	n/a	n/a	2	UoHDataOffsetStream
918.210583	0.008000	dropped_samples	6723.095823	Dropped 2 samples	n/a	n/a	n/a	n/a	n/a	n/a	2	UoHDataOffsetStream
918.513936	0.000000	4-back	6723.399177	Steps:4 KeyPress:False Matched:True	0	4	false	true	Wrong	false	n/a	n-backMarkers
920.215177	0.000000	4-back	6725.100417	Steps:4 KeyPress:False Matched:False	1	4	false	false	Correct	false	n/a	n-backMarkers
921.916897	0.000000	4-back	6726.802138	Steps:4 KeyPress:False Matched:False	1	4	false	false	Correct	false	n/a	n-backMarkers
923.618605	0.000000	4-back	6728.503846	Steps:4 KeyPress:False Matched:False	1	4	false	false	Correct	false	n/a	n-backMarkers
925.318263	0.000000	4-back	6730.203504	Steps:4 KeyPress:True Matched:True	1	4	true	true	Correct	false	n/a	n-backMarkers
925.412741	0.004000	dropped_samples	6730.297982	Dropped 1 samples	n/a	n/a	n/a	n/a	n/a	n/a	1	UoHDataOffsetStream
927.011374	0.004000	dropped_samples	6731.896614	Dropped 1 samples	n/a	n/a	n/a	n/a	n/a	n/a	1	UoHDataOffsetStream
927.019186	0.000000	4-back	6731.904427	Steps:4 KeyPress:True Matched:False	0	4	true	false	Wrong	false	n/a	n-backMarkers
927.932345	0.004000	dropped_samples	6732.817586	Dropped 1 samples	n/a	n/a	n/a	n/a	n/a	n/a	1	UoHDataOffsetStream
928.720085	0.000000	4-back	6733.605326	Steps:4 KeyPress:True Matched:False	0	4	true	false	Wrong	false	n/a	n-backMarkers
930.420265	0.000000	4-back	6735.305506	Steps:4 KeyPress:False Matched:False	1	4	false	false	Correct	false	n/a	n-backMarkers
931.440080	0.012000	dropped_samples	6736.325321	Dropped 3 samples	n/a	n/a	n/a	n/a	n/a	n/a	3	UoHDataOffsetStream
931.482278	0.008000	dropped_samples	6736.367519	Dropped 2 samples	n/a	n/a	n/a	n/a	n/a	n/a	2	UoHDataOffsetStream
932.107112	0.004000	dropped_samples	6736.992353	Dropped 1 samples	n/a	n/a	n/a	n/a	n/a	n/a	1	UoHDataOffsetStream
932.121350	0.000000	4-back	6737.006591	Steps:4 KeyPress:False Matched:True	0	4	false	true	Wrong	false	n/a	n-backMarkers
933.822202	0.000000	4-back	6738.707443	Steps:4 KeyPress:False Matched:False	1	4	false	false	Correct	false	n/a	n-backMarkers
934.314234	0.004000	dropped_samples	6739.199475	Dropped 1 samples	n/a	n/a	n/a	n/a	n/a	n/a	1	UoHDataOffsetStream
935.523129	0.000000	4-back	6740.408370	Steps:4 KeyPress:False Matched:False	1	4	false	false	Correct	false	n/a	n-backMarkers
936.281946	0.004000	dropped_samples	6741.167187	Dropped 1 samples	n/a	n/a	n/a	n/a	n/a	n/a	1	UoHDataOffsetStream
937.224257	0.000000	4-back	6742.109498	Steps:4 KeyPress:False Matched:False	1	4	false	false	Correct	false	n/a	n-backMarkers
938.925562	0.000000	4-back	6743.810802	Steps:4 KeyPress:False Matched:True	0	4	false	true	Wrong	false	n/a	n-backMarkers
939.836825	0.012000	dropped_samples	6744.722066	Dropped 3 samples	n/a	n/a	n/a	n/a	n/a	n/a	3	UoHDataOffsetStream
940.626957	0.000000	4-back	6745.512198	Steps:4 KeyPress:False Matched:True	0	4	false	true	Wrong	false	n/a	n-backMarkers
942.328099	0.000000	4-back	6747.213340	Steps:4 KeyPress:True Matched:False	0	4	true	false	Wrong	false	n/a	n-backMarkers
943.009722	0.012000	dropped_samples	6747.894963	Dropped 3 samples	n/a	n/a	n/a	n/a	n/a	n/a	3	UoHDataOffsetStream
944.029206	0.000000	4-back	6748.914446	Steps:4 KeyPress:False Matched:False	1	4	false	false	Correct	false	n/a	n-backMarkers
944.538944	0.012000	dropped_samples	6749.424184	Dropped 3 samples	n/a	n/a	n/a	n/a	n/a	n/a	3	UoHDataOffsetStream
945.729415	0.000000	4-back	6750.614656	Steps:4 KeyPress:False Matched:False	1	4	false	false	Correct	false	n/a	n-backMarkers
946.430949	0.000000	finished_n_back	6751.316190	Finished n-back	n/a	n/a	n/a	n/a	n/a	false	n/a	n-backMarkers
947.346393	0.012000	dropped_samples	6752.231633	Dropped 3 samples	n/a	n/a	n/a	n/a	n/a	n/a	3	UoHDataOffsetStream
949.666913	0.004000	dropped_samples	6754.552154	Dropped 1 samples	n/a	n/a	n/a	n/a	n/a	n/a	1	UoHDataOffsetStream
954.124729	0.004000	dropped_samples	6759.009970	Dropped 1 samples	n/a	n/a	n/a	n/a	n/a	n/a	1	UoHDataOffsetStream
954.621888	0.008000	dropped_samples	6759.507129	Dropped 2 samples	n/a	n/a	n/a	n/a	n/a	n/a	2	UoHDataOffsetStream
956.682361	0.004000	dropped_samples	6761.567601	Dropped 1 samples	n/a	n/a	n/a	n/a	n/a	n/a	1	UoHDataOffsetStream
956.780061	0.004000	dropped_samples	6761.665302	Dropped 1 samples	n/a	n/a	n/a	n/a	n/a	n/a	1	UoHDataOffsetStream
960.354259	0.004000	dropped_samples	6765.239500	Dropped 1 samples	n/a	n/a	n/a	n/a	n/a	n/a	1	UoHDataOffsetStream
