onset	duration	trial_type	timestamp_lsl	marker	response_accuracy	nback_level	key_press	matched	outcome	istutorial	dropped_samples	marker_stream
0.485071	0.004000	dropped_samples	5129.747035	Dropped 1 samples	n/a	n/a	n/a	n/a	n/a	n/a	1	UoHDataOffsetStream
0.773152	0.004000	dropped_samples	5130.035116	Dropped 1 samples	n/a	n/a	n/a	n/a	n/a	n/a	1	UoHDataOffsetStream
1.012413	0.004000	dropped_samples	5130.274378	Dropped 1 samples	n/a	n/a	n/a	n/a	n/a	n/a	1	UoHDataOffsetStream
2.096433	0.004000	dropped_samples	5131.358397	Dropped 1 samples	n/a	n/a	n/a	n/a	n/a	n/a	1	UoHDataOffsetStream
3.175463	0.004000	dropped_samples	5132.437428	Dropped 1 samples	n/a	n/a	n/a	n/a	n/a	n/a	1	UoHDataOffsetStream
6.278194	0.000000	started_tutorial_n_back	5135.540159	Started tutorial n-back	n/a	n/a	n/a	n/a	n/a	true	n/a	n-backMarkers
11.500748	0.004000	dropped_samples	5140.762712	Dropped 1 samples	n/a	n/a	n/a	n/a	n/a	n/a	1	UoHDataOffsetStream
15.729240	0.004000	dropped_samples	5144.991204	Dropped 1 samples	n/a	n/a	n/a	n/a	n/a	n/a	1	UoHDataOffsetStream
19.376720	0.012000	dropped_samples	5148.638685	Dropped 3 samples	n/a	n/a	n/a	n/a	n/a	n/a	3	UoHDataOffsetStream
30.079890	0.004000	dropped_samples	5159.341854	Dropped 1 samples	n/a	n/a	n/a	n/a	n/a	n/a	1	UoHDataOffsetStream
33.248869	0.004000	dropped_samples	5162.510833	Dropped 1 samples	n/a	n/a	n/a	n/a	n/a	n/a	1	UoHDataOffsetStream
40.421683	0.004000	dropped_samples	5169.683647	Dropped 1 samples	n/a	n/a	n/a	n/a	n/a	n/a	1	UoHDataOffsetStream
42.848472	0.012000	dropped_samples	5172.110437	Dropped 3 samples	n/a	n/a	n/a	n/a	n/a	n/a	3	UoHDataOffsetStream
43.805492	0.004000	dropped_samples	5173.067456	Dropped 1 samples	n/a	n/a	n/a	n/a	n/a	n/a	1	UoHDataOffsetStream
47.311327	0.004000	dropped_samples	5176.573291	Dropped 1 samples	n/a	n/a	n/a	n/a	n/a	n/a	1	UoHDataOffsetStream
48.297704	0.004000	dropped_samples	5177.559668	Dropped 1 samples	n/a	n/a	n/a	n/a	n/a	n/a	1	UoHDataOffsetStream
57.321147	0.004000	dropped_samples	5186.583111	Dropped 1 samples	n/a	n/a	n/a	n/a	n/a	n/a	1	UoHDataOffsetStream
61.686370	0.012000	dropped_samples	5190.948334	Dropped 3 samples	n/a	n/a	n/a	n/a	n/a	n/a	3	UoHDataOffsetStream
63.200062	0.004000	dropped_samples	5192.462026	Dropped 1 samples	n/a	n/a	n/a	n/a	n/a	n/a	1	UoHDataOffsetStream
65.241088	0.012000	dropped_samples	5194.503053	Dropped 3 samples	n/a	n/a	n/a	n/a	n/a	n/a	3	UoHDataOffsetStream
65.597589	0.004000	dropped_samples	5194.859553	Dropped 1 samples	n/a	n/a	n/a	n/a	n/a	n/a	1	UoHDataOffsetStream
70.783106	0.004000	dropped_samples	5200.045070	Dropped 1 samples	n/a	n/a	n/a	n/a	n/a	n/a	1	UoHDataOffsetStream
72.775281	0.004000	dropped_samples	5202.037246	Dropped 1 samples	n/a	n/a	n/a	n/a	n/a	n/a	1	UoHDataOffsetStream
73.279536	0.000000	1-back	5202.541500	Steps:1 KeyPress:False Matched:False	1	1	false	false	Correct	true	n/a	n-backMarkers
74.980986	0.000000	1-back	5204.242951	Steps:1 KeyPress:True Matched:False	0	1	true	false	Wrong	true	n/a	n-backMarkers
76.682105	0.000000	1-back	5205.944070	Steps:1 KeyPress:False Matched:False	1	1	false	false	Correct	true	n/a	n-backMarkers
78.383957	0.000000	1-back	5207.645921	Steps:1 KeyPress:False Matched:False	1	1	false	false	Correct	true	n/a	n-backMarkers
80.084822	0.000000	1-back	5209.346786	Steps:1 KeyPress:True Matched:False	0	1	true	false	Wrong	true	n/a	n-backMarkers
81.032133	0.004000	dropped_samples	5210.294097	Dropped 1 samples	n/a	n/a	n/a	n/a	n/a	n/a	1	UoHDataOffsetStream
81.535092	0.004000	dropped_samples	5210.797056	Dropped 1 samples	n/a	n/a	n/a	n/a	n/a	n/a	1	UoHDataOffsetStream
81.785503	0.000000	1-back	5211.047468	Steps:1 KeyPress:False Matched:False	1	1	false	false	Correct	true	n/a	n-backMarkers
83.487114	0.000000	1-back	5212.749078	Steps:1 KeyPress:True Matched:False	0	1	true	false	Wrong	true	n/a	n-backMarkers
85.189402	0.000000	1-back	5214.451366	Steps:1 KeyPress:False Matched:False	1	1	false	false	Correct	true	n/a	n-backMarkers
86.891996	0.000000	1-back	5216.153960	Steps:1 KeyPress:True Matched:False	0	1	true	false	Wrong	true	n/a	n-backMarkers
86.984354	0.004000	dropped_samples	5216.246319	Dropped 1 samples	n/a	n/a	n/a	n/a	n/a	n/a	1	UoHDataOffsetStream
87.921889	0.004000	dropped_samples	5217.183854	Dropped 1 samples	n/a	n/a	n/a	n/a	n/a	n/a	1	UoHDataOffsetStream
88.594924	0.000000	1-back	5217.856888	Steps:1 KeyPress:True Matched:True	1	1	true	true	Correct	true	n/a	n-backMarkers
90.296801	0.000000	1-back	5219.558766	Steps:1 KeyPress:True Matched:True	1	1	true	true	Correct	true	n/a	n-backMarkers
91.997885	0.000000	1-back	5221.259849	Steps:1 KeyPress:False Matched:True	0	1	false	true	Wrong	true	n/a	n-backMarkers
92.311506	0.004000	dropped_samples	5221.573471	Dropped 1 samples	n/a	n/a	n/a	n/a	n/a	n/a	1	UoHDataOffsetStream
93.698832	0.000000	1-back	5222.960797	Steps:1 KeyPress:False Matched:False	1	1	false	false	Correct	true	n/a	n-backMarkers
95.400107	0.000000	1-back	5224.662071	Steps:1 KeyPress:True Matched:False	0	1	true	false	Wrong	true	n/a	n-backMarkers
97.101575	0.000000	1-back	5226.363539	Steps:1 KeyPress:False Matched:True	0	1	false	true	Wrong	true	n/a	n-backMarkers
98.803931	0.000000	1-back	5228.065895	Steps:1 KeyPress:False Matched:False	1	1	false	false	Correct	true	n/a	n-backMarkers
100.402327	0.004000	dropped_samples	5229.664291	Dropped 1 samples	n/a	n/a	n/a	n/a	n/a	n/a	1	UoHDataOffsetStream
100.504875	0.000000	1-back	5229.766839	Steps:1 KeyPress:True Matched:False	0	1	true	false	Wrong	true	n/a	n-backMarkers
100.734382	0.008000	dropped_samples	5229.996347	Dropped 2 samples	n/a	n/a	n/a	n/a	n/a	n/a	2	UoHDataOffsetStream
102.205087	0.000000	1-back	5231.467051	Steps:1 KeyPress:False Matched:True	0	1	false	true	Wrong	true	n/a	n-backMarkers
103.327118	0.004000	dropped_samples	5232.589082	Dropped 1 samples	n/a	n/a	n/a	n/a	n/a	n/a	1	UoHDataOffsetStream
103.906855	0.000000	1-back	5233.168820	Steps:1 KeyPress:False Matched:False	1	1	false	false	Correct	true	n/a	n-backMarkers
105.609019	0.000000	1-back	5234.870984	Steps:1 KeyPress:True Matched:False	0	1	true	false	Wrong	true	n/a	n-backMarkers
106.759806	0.004000	dropped_samples	5236.021770	Dropped 1 samples	n/a	n/a	n/a	n/a	n/a	n/a	1	UoHDataOffsetStream
107.309946	0.000000	1-back	5236.571910	Steps:1 KeyPress:False Matched:False	1	1	false	false	Correct	true	n/a	n-backMarkers
115.734386	0.012000	dropped_samples	5244.996350	Dropped 3 samples	n/a	n/a	n/a	n/a	n/a	n/a	3	UoHDataOffsetStream
116.003457	0.000000	2-back	5245.265422	Steps:2 KeyPress:False Matched:False	1	2	false	false	Correct	true	n/a	n-backMarkers
116.549826	0.004000	dropped_samples	5245.811790	Dropped 1 samples	n/a	n/a	n/a	n/a	n/a	n/a	1	UoHDataOffsetStream
117.704911	0.000000	2-back	5246.966875	Steps:2 KeyPress:False Matched:False	1	2	false	false	Correct	true	n/a	n-backMarkers
119.406282	0.000000	2-back	5248.668247	Steps:2 KeyPress:False Matched:False	1	2	false	false	Correct	true	n/a	n-backMarkers
121.108043	0.000000	2-back	5250.370007	Steps:2 KeyPress:True Matched:False	0	2	true	false	Wrong	true	n/a	n-backMarkers
121.593760	0.004000	dropped_samples	5250.855724	Dropped 1 samples	n/a	n/a	n/a	n/a	n/a	n/a	1	UoHDataOffsetStream
122.808796	0.000000	2-back	5252.070760	Steps:2 KeyPress:False Matched:True	0	2	false	true	Wrong	true	n/a	n-backMarkers
124.510094	0.000000	2-back	5253.772059	Steps:2 KeyPress:False Matched:False	1	2	false	false	Correct	true	n/a	n-backMarkers
126.211863	0.000000	2-back	5255.473828	Steps:2 KeyPress:False Matched:False	1	2	false	false	Correct	true	n/a	n-backMarkers
127.018608	0.004000	dropped_samples	5256.280573	Dropped 1 samples	n/a	n/a	n/a	n/a	n/a	n/a	1	UoHDataOffsetStream
127.913368	0.000000	2-back	5257.175332	Steps:2 KeyPress:True Matched:False	0	2	true	false	Wrong	true	n/a	n-backMarkers
129.562539	0.004000	dropped_samples	5258.824503	Dropped 1 samples	n/a	n/a	n/a	n/a	n/a	n/a	1	UoHDataOffsetStream
129.614853	0.000000	2-back	5258.876818	Steps:2 KeyPress:False Matched:False	1	2	false	false	Correct	true	n/a	n-backMarkers
129.801801	0.008000	dropped_samples	5259.063765	Dropped 2 samples	n/a	n/a	n/a	n/a	n/a	n/a	2	UoHDataOffsetStream
131.316379	0.000000	2-back	5260.578343	Steps:2 KeyPress:False Matched:False	1	2	false	false	Correct	true	n/a	n-backMarkers
133.017896	0.000000	2-back	5262.279860	Steps:2 KeyPress:True Matched:False	0	2	true	false	Wrong	true	n/a	n-backMarkers
133.542271	0.004000	dropped_samples	5262.804236	Dropped 1 samples	n/a	n/a	n/a	n/a	n/a	n/a	1	UoHDataOffsetStream
134.719527	0.000000	2-back	5263.981491	Steps:2 KeyPress:False Matched:False	1	2	false	false	Correct	true	n/a	n-backMarkers
134.914140	0.012000	dropped_samples	5264.176104	Dropped 3 samples	n/a	n/a	n/a	n/a	n/a	n/a	3	UoHDataOffsetStream
136.420781	0.000000	2-back	5265.682745	Steps:2 KeyPress:False Matched:False	1	2	false	false	Correct	true	n/a	n-backMarkers
138.121792	0.000000	2-back	5267.383756	Steps:2 KeyPress:True Matched:False	0	2	true	false	Wrong	true	n/a	n-backMarkers
139.206110	0.004000	dropped_samples	5268.468074	Dropped 1 samples	n/a	n/a	n/a	n/a	n/a	n/a	1	UoHDataOffsetStream
139.824172	0.000000	2-back	5269.086136	Steps:2 KeyPress:False Matched:True	0	2	false	true	Wrong	true	n/a	n-backMarkers
141.525840	0.000000	2-back	5270.787804	Steps:2 KeyPress:False Matched:False	1	2	false	false	Correct	true	n/a	n-backMarkers
142.785212	0.004000	dropped_samples	5272.047176	Dropped 1 samples	n/a	n/a	n/a	n/a	n/a	n/a	1	UoHDataOffsetStream
143.227905	0.000000	2-back	5272.489869	Steps:2 KeyPress:False Matched:False	1	2	false	false	Correct	true	n/a	n-backMarkers
144.928740	0.000000	2-back	5274.190704	Steps:2 KeyPress:False Matched:False	1	2	false	false	Correct	true	n/a	n-backMarkers
146.630069	0.000000	2-back	5275.892034	Steps:2 KeyPress:True Matched:False	0	2	true	false	Wrong	true	n/a	n-backMarkers
148.333332	0.000000	2-back	5277.595296	Steps:2 KeyPress:False Matched:True	0	2	false	true	Wrong	true	n/a	n-backMarkers
153.727670	0.004000	dropped_samples	5282.989634	Dropped 1 samples	n/a	n/a	n/a	n/a	n/a	n/a	1	UoHDataOffsetStream
154.494236	0.004000	dropped_samples	5283.756200	Dropped 1 samples	n/a	n/a	n/a	n/a	n/a	n/a	1	UoHDataOffsetStream
157.030353	0.000000	3-back	5286.292318	Steps:3 KeyPress:False Matched:False	1	3	false	false	Correct	true	n/a	n-backMarkers
157.350711	0.004000	dropped_samples	5286.612676	Dropped 1 samples	n/a	n/a	n/a	n/a	n/a	n/a	1	UoHDataOffsetStream
158.731064	0.000000	3-back	5287.993029	Steps:3 KeyPress:False Matched:False	1	3	false	false	Correct	true	n/a	n-backMarkers
160.432067	0.000000	3-back	5289.694032	Steps:3 KeyPress:False Matched:False	1	3	false	false	Correct	true	n/a	n-backMarkers
162.133040	0.000000	3-back	5291.395005	Steps:3 KeyPress:False Matched:False	1	3	false	false	Correct	true	n/a	n-backMarkers
163.835995	0.000000	3-back	5293.097960	Steps:3 KeyPress:False Matched:False	1	3	false	false	Correct	true	n/a	n-backMarkers
165.417091	0.012000	dropped_samples	5294.679055	Dropped 3 samples	n/a	n/a	n/a	n/a	n/a	n/a	3	UoHDataOffsetStream
165.537867	0.000000	3-back	5294.799832	Steps:3 KeyPress:False Matched:False	1	3	false	false	Correct	true	n/a	n-backMarkers
167.239645	0.000000	3-back	5296.501609	Steps:3 KeyPress:False Matched:False	1	3	false	false	Correct	true	n/a	n-backMarkers
168.940145	0.000000	3-back	5298.202110	Steps:3 KeyPress:True Matched:False	0	3	true	false	Wrong	true	n/a	n-backMarkers
170.407365	0.012000	dropped_samples	5299.669330	Dropped 3 samples	n/a	n/a	n/a	n/a	n/a	n/a	3	UoHDataOffsetStream
170.641772	0.000000	3-back	5299.903736	Steps:3 KeyPress:False Matched:True	0	3	false	true	Wrong	true	n/a	n-backMarkers
170.768669	0.004000	dropped_samples	5300.030633	Dropped 1 samples	n/a	n/a	n/a	n/a	n/a	n/a	1	UoHDataOffsetStream
172.342180	0.000000	3-back	5301.604144	Steps:3 KeyPress:False Matched:False	1	3	false	false	Correct	true	n/a	n-backMarkers
172.375698	0.012000	dropped_samples	5301.637662	Dropped 3 samples	n/a	n/a	n/a	n/a	n/a	n/a	3	UoHDataOffsetStream
174.042817	0.000000	3-back	5303.304781	Steps:3 KeyPress:False Matched:False	1	3	false	false	Correct	true	n/a	n-backMarkers
175.743699	0.000000	3-back	5305.005663	Steps:3 KeyPress:False Matched:False	1	3	false	false	Correct	true	n/a	n-backMarkers
177.438645	0.004000	dropped_samples	5306.700610	Dropped 1 samples	n/a	n/a	n/a	n/a	n/a	n/a	1	UoHDataOffsetStream
177.444428	0.000000	3-back	5306.706392	Steps:3 KeyPress:False Matched:False	1	3	false	false	Correct	true	n/a	n-backMarkers
179.145986	0.000000	3-back	5308.407951	Steps:3 KeyPress:False Matched:False	1	3	false	false	Correct	true	n/a	n-backMarkers
179.362501	0.012000	dropped_samples	5308.624465	Dropped 3 samples	n/a	n/a	n/a	n/a	n/a	n/a	3	UoHDataOffsetStream
180.616817	0.004000	dropped_samples	5309.878782	Dropped 1 samples	n/a	n/a	n/a	n/a	n/a	n/a	1	UoHDataOffsetStream
180.656410	0.012000	dropped_samples	5309.918375	Dropped 3 samples	n/a	n/a	n/a	n/a	n/a	n/a	3	UoHDataOffsetStream
180.847609	0.000000	3-back	5310.109573	Steps:3 KeyPress:False Matched:False	1	3	false	false	Correct	true	n/a	n-backMarkers
182.547726	0.000000	3-back	5311.809690	Steps:3 KeyPress:False Matched:False	1	3	false	false	Correct	true	n/a	n-backMarkers
183.127113	0.004000	dropped_samples	5312.389077	Dropped 1 samples	n/a	n/a	n/a	n/a	n/a	n/a	1	UoHDataOffsetStream
184.248082	0.000000	3-back	5313.510046	Steps:3 KeyPress:True Matched:False	0	3	true	false	Wrong	true	n/a	n-backMarkers
185.948630	0.000000	3-back	5315.210594	Steps:3 KeyPress:False Matched:False	1	3	false	false	Correct	true	n/a	n-backMarkers
187.649760	0.000000	3-back	5316.911725	Steps:3 KeyPress:False Matched:False	1	3	false	false	Correct	true	n/a	n-backMarkers
189.054887	0.004000	dropped_samples	5318.316851	Dropped 1 samples	n/a	n/a	n/a	n/a	n/a	n/a	1	UoHDataOffsetStream
189.350787	0.000000	3-back	5318.612751	Steps:3 KeyPress:False Matched:False	1	3	false	false	Correct	true	n/a	n-backMarkers
198.055294	0.000000	4-back	5327.317259	Steps:4 KeyPress:False Matched:False	1	4	false	false	Correct	true	n/a	n-backMarkers
199.756451	0.000000	4-back	5329.018416	Steps:4 KeyPress:False Matched:False	1	4	false	false	Correct	true	n/a	n-backMarkers
201.457486	0.000000	4-back	5330.719450	Steps:4 KeyPress:False Matched:False	1	4	false	false	Correct	true	n/a	n-backMarkers
202.043182	0.004000	dropped_samples	5331.305146	Dropped 1 samples	n/a	n/a	n/a	n/a	n/a	n/a	1	UoHDataOffsetStream
203.158384	0.000000	4-back	5332.420348	Steps:4 KeyPress:False Matched:True	0	4	false	true	Wrong	true	n/a	n-backMarkers
204.859814	0.000000	4-back	5334.121778	Steps:4 KeyPress:False Matched:False	1	4	false	false	Correct	true	n/a	n-backMarkers
206.561734	0.000000	4-back	5335.823699	Steps:4 KeyPress:False Matched:False	1	4	false	false	Correct	true	n/a	n-backMarkers
208.262723	0.000000	4-back	5337.524688	Steps:4 KeyPress:False Matched:False	1	4	false	false	Correct	true	n/a	n-backMarkers
209.963632	0.000000	4-back	5339.225596	Steps:4 KeyPress:False Matched:True	0	4	false	true	Wrong	true	n/a	n-backMarkers
210.319580	0.012000	dropped_samples	5339.581545	Dropped 3 samples	n/a	n/a	n/a	n/a	n/a	n/a	3	UoHDataOffsetStream
211.664205	0.000000	4-back	5340.926170	Steps:4 KeyPress:True Matched:False	0	4	true	false	Wrong	true	n/a	n-backMarkers
213.366300	0.000000	4-back	5342.628264	Steps:4 KeyPress:False Matched:True	0	4	false	true	Wrong	true	n/a	n-backMarkers
214.928960	0.004000	dropped_samples	5344.190924	Dropped 1 samples	n/a	n/a	n/a	n/a	n/a	n/a	1	UoHDataOffsetStream
215.068649	0.000000	4-back	5344.330614	Steps:4 KeyPress:False Matched:False	1	4	false	false	Correct	true	n/a	n-backMarkers
216.769687	0.000000	4-back	5346.031651	Steps:4 KeyPress:False Matched:False	1	4	false	false	Correct	true	n/a	n-backMarkers
218.471734	0.000000	4-back	5347.733698	Steps:4 KeyPress:False Matched:False	1	4	false	false	Correct	true	n/a	n-backMarkers
219.059864	0.004000	dropped_samples	5348.321828	Dropped 1 samples	n/a	n/a	n/a	n/a	n/a	n/a	1	UoHDataOffsetStream
220.173727	0.000000	4-back	5349.435691	Steps:4 KeyPress:False Matched:True	0	4	false	true	Wrong	true	n/a	n-backMarkers
221.875210	0.000000	4-back	5351.137175	Steps:4 KeyPress:False Matched:False	1	4	false	false	Correct	true	n/a	n-backMarkers
223.307851	0.012000	dropped_samples	5352.569815	Dropped 3 samples	n/a	n/a	n/a	n/a	n/a	n/a	3	UoHDataOffsetStream
223.577906	0.000000	4-back	5352.839870	Steps:4 KeyPress:False Matched:False	1	4	false	false	Correct	true	n/a	n-backMarkers
225.280684	0.000000	4-back	5354.542649	Steps:4 KeyPress:False Matched:False	1	4	false	false	Correct	true	n/a	n-backMarkers
225.368431	0.012000	dropped_samples	5354.630396	Dropped 3 samples	n/a	n/a	n/a	n/a	n/a	n/a	3	UoHDataOffsetStream
226.981758	0.000000	4-back	5356.243723	Steps:4 KeyPress:False Matched:False	1	4	false	false	Correct	true	n/a	n-backMarkers
228.683677	0.000000	4-back	5357.945641	Steps:4 KeyPress:False Matched:True	0	4	false	true	Wrong	true	n/a	n-backMarkers
229.928964	0.004000	dropped_samples	5359.190929	Dropped 1 samples	n/a	n/a	n/a	n/a	n/a	n/a	1	UoHDataOffsetStream
230.384118	0.000000	4-back	5359.646082	Steps:4 KeyPress:False Matched:False	1	4	false	false	Correct	true	n/a	n-backMarkers
231.088451	0.000000	finished_tutorial_n_back	5360.350415	Finished tutorial n-back	n/a	n/a	n/a	n/a	n/a	true	n/a	n-backMarkers
232.886618	0.000000	started_n_back	5362.148583	Started n-back	n/a	n/a	n/a	n/a	n/a	false	n/a	n-backMarkers
236.530614	0.004000	dropped_samples	5365.792579	Dropped 1 samples	n/a	n/a	n/a	n/a	n/a	n/a	1	UoHDataOffsetStream
237.345986	0.004000	dropped_samples	5366.607951	Dropped 1 samples	n/a	n/a	n/a	n/a	n/a	n/a	1	UoHDataOffsetStream
237.922198	0.004000	dropped_samples	5367.184163	Dropped 1 samples	n/a	n/a	n/a	n/a	n/a	n/a	1	UoHDataOffsetStream
240.876121	0.000000	1-back	5370.138085	Steps:1 KeyPress:False Matched:False	1	1	false	false	Correct	false	n/a	n-backMarkers
241.667437	0.004000	dropped_samples	5370.929401	Dropped 1 samples	n/a	n/a	n/a	n/a	n/a	n/a	1	UoHDataOffsetStream
242.576225	0.000000	1-back	5371.838190	Steps:1 KeyPress:False Matched:False	1	1	false	false	Correct	false	n/a	n-backMarkers
244.276812	0.000000	1-back	5373.538776	Steps:1 KeyPress:True Matched:False	0	1	true	false	Wrong	false	n/a	n-backMarkers
245.002296	0.004000	dropped_samples	5374.264260	Dropped 1 samples	n/a	n/a	n/a	n/a	n/a	n/a	1	UoHDataOffsetStream
245.977499	0.000000	1-back	5375.239463	Steps:1 KeyPress:False Matched:False	1	1	false	false	Correct	false	n/a	n-backMarkers
246.970068	0.004000	dropped_samples	5376.232033	Dropped 1 samples	n/a	n/a	n/a	n/a	n/a	n/a	1	UoHDataOffsetStream
247.678980	0.000000	1-back	5376.940944	Steps:1 KeyPress:True Matched:False	0	1	true	false	Wrong	false	n/a	n-backMarkers
248.771818	0.004000	dropped_samples	5378.033782	Dropped 1 samples	n/a	n/a	n/a	n/a	n/a	n/a	1	UoHDataOffsetStream
249.380388	0.000000	1-back	5378.642352	Steps:1 KeyPress:False Matched:False	1	1	false	false	Correct	false	n/a	n-backMarkers
251.082333	0.000000	1-back	5380.344298	Steps:1 KeyPress:True Matched:False	0	1	true	false	Wrong	false	n/a	n-backMarkers
252.443703	0.004000	dropped_samples	5381.705668	Dropped 1 samples	n/a	n/a	n/a	n/a	n/a	n/a	1	UoHDataOffsetStream
252.783640	0.000000	1-back	5382.045605	Steps:1 KeyPress:False Matched:False	1	1	false	false	Correct	false	n/a	n-backMarkers
254.483850	0.000000	1-back	5383.745814	Steps:1 KeyPress:True Matched:False	0	1	true	false	Wrong	false	n/a	n-backMarkers
256.183950	0.000000	1-back	5385.445915	Steps:1 KeyPress:False Matched:False	1	1	false	false	Correct	false	n/a	n-backMarkers
257.311891	0.012000	dropped_samples	5386.573856	Dropped 3 samples	n/a	n/a	n/a	n/a	n/a	n/a	3	UoHDataOffsetStream
257.884273	0.000000	1-back	5387.146237	Steps:1 KeyPress:True Matched:False	0	1	true	false	Wrong	false	n/a	n-backMarkers
259.584863	0.000000	1-back	5388.846827	Steps:1 KeyPress:False Matched:False	1	1	false	false	Correct	false	n/a	n-backMarkers
261.285319	0.000000	1-back	5390.547283	Steps:1 KeyPress:True Matched:False	0	1	true	false	Wrong	false	n/a	n-backMarkers
262.985386	0.000000	1-back	5392.247350	Steps:1 KeyPress:False Matched:True	0	1	false	true	Wrong	false	n/a	n-backMarkers
263.864623	0.012000	dropped_samples	5393.126587	Dropped 3 samples	n/a	n/a	n/a	n/a	n/a	n/a	3	UoHDataOffsetStream
264.686702	0.000000	1-back	5393.948666	Steps:1 KeyPress:False Matched:False	1	1	false	false	Correct	false	n/a	n-backMarkers
265.256244	0.004000	dropped_samples	5394.518208	Dropped 1 samples	n/a	n/a	n/a	n/a	n/a	n/a	1	UoHDataOffsetStream
266.387830	0.000000	1-back	5395.649794	Steps:1 KeyPress:True Matched:False	0	1	true	false	Wrong	false	n/a	n-backMarkers
268.089324	0.000000	1-back	5397.351288	Steps:1 KeyPress:False Matched:False	1	1	false	false	Correct	false	n/a	n-backMarkers
268.713274	0.004000	dropped_samples	5397.975239	Dropped 1 samples	n/a	n/a	n/a	n/a	n/a	n/a	1	UoHDataOffsetStream
269.050215	0.004000	dropped_samples	5398.312179	Dropped 1 samples	n/a	n/a	n/a	n/a	n/a	n/a	1	UoHDataOffsetStream
269.789475	0.000000	1-back	5399.051439	Steps:1 KeyPress:True Matched:False	0	1	true	false	Wrong	false	n/a	n-backMarkers
271.490831	0.000000	1-back	5400.752796	Steps:1 KeyPress:False Matched:True	0	1	false	true	Wrong	false	n/a	n-backMarkers
273.192321	0.000000	1-back	5402.454285	Steps:1 KeyPress:False Matched:True	0	1	false	true	Wrong	false	n/a	n-backMarkers
273.923299	0.004000	dropped_samples	5403.185263	Dropped 1 samples	n/a	n/a	n/a	n/a	n/a	n/a	1	UoHDataOffsetStream
274.893451	0.000000	1-back	5404.155415	Steps:1 KeyPress:True Matched:True	1	1	true	true	Correct	false	n/a	n-backMarkers
276.593790	0.000000	1-back	5405.855755	Steps:1 KeyPress:True Matched:False	0	1	true	false	Wrong	false	n/a	n-backMarkers
278.294306	0.000000	1-back	5407.556270	Steps:1 KeyPress:False Matched:False	1	1	false	false	Correct	false	n/a	n-backMarkers
279.995479	0.000000	1-back	5409.257443	Steps:1 KeyPress:True Matched:False	0	1	true	false	Wrong	false	n/a	n-backMarkers
281.696326	0.000000	1-back	5410.958290	Steps:1 KeyPress:False Matched:False	1	1	false	false	Correct	false	n/a	n-backMarkers
281.721314	0.012000	dropped_samples	5410.983279	Dropped 3 samples	n/a	n/a	n/a	n/a	n/a	n/a	3	UoHDataOffsetStream
283.397320	0.000000	1-back	5412.659285	Steps:1 KeyPress:True Matched:False	0	1	true	false	Wrong	false	n/a	n-backMarkers
285.099628	0.000000	1-back	5414.361592	Steps:1 KeyPress:False Matched:True	0	1	false	true	Wrong	false	n/a	n-backMarkers
286.452568	0.004000	dropped_samples	5415.714532	Dropped 1 samples	n/a	n/a	n/a	n/a	n/a	n/a	1	UoHDataOffsetStream
286.716242	0.012000	dropped_samples	5415.978206	Dropped 3 samples	n/a	n/a	n/a	n/a	n/a	n/a	3	UoHDataOffsetStream
286.800586	0.000000	1-back	5416.062550	Steps:1 KeyPress:False Matched:True	0	1	false	true	Wrong	false	n/a	n-backMarkers
288.501284	0.000000	1-back	5417.763249	Steps:1 KeyPress:False Matched:False	1	1	false	false	Correct	false	n/a	n-backMarkers
290.201477	0.000000	1-back	5419.463441	Steps:1 KeyPress:True Matched:False	0	1	true	false	Wrong	false	n/a	n-backMarkers
291.903323	0.000000	1-back	5421.165288	Steps:1 KeyPress:False Matched:False	1	1	false	false	Correct	false	n/a	n-backMarkers
292.546370	0.004000	dropped_samples	5421.808334	Dropped 1 samples	n/a	n/a	n/a	n/a	n/a	n/a	1	UoHDataOffsetStream
293.604532	0.000000	1-back	5422.866496	Steps:1 KeyPress:True Matched:False	0	1	true	false	Wrong	false	n/a	n-backMarkers
294.948681	0.004000	dropped_samples	5424.210646	Dropped 1 samples	n/a	n/a	n/a	n/a	n/a	n/a	1	UoHDataOffsetStream
295.305674	0.000000	1-back	5424.567639	Steps:1 KeyPress:False Matched:False	1	1	false	false	Correct	false	n/a	n-backMarkers
297.006284	0.000000	1-back	5426.268248	Steps:1 KeyPress:True Matched:False	0	1	true	false	Wrong	false	n/a	n-backMarkers
298.707323	0.000000	1-back	5427.969287	Steps:1 KeyPress:True Matched:False	0	1	true	false	Wrong	false	n/a	n-backMarkers
300.407578	0.000000	1-back	5429.669543	Steps:1 KeyPress:True Matched:False	0	1	true	false	Wrong	false	n/a	n-backMarkers
302.108393	0.000000	1-back	5431.370357	Steps:1 KeyPress:False Matched:False	1	1	false	false	Correct	false	n/a	n-backMarkers
302.961398	0.004000	dropped_samples	5432.223362	Dropped 1 samples	n/a	n/a	n/a	n/a	n/a	n/a	1	UoHDataOffsetStream
303.810288	0.000000	1-back	5433.072252	Steps:1 KeyPress:True Matched:False	0	1	true	false	Wrong	false	n/a	n-backMarkers
305.511611	0.000000	1-back	5434.773575	Steps:1 KeyPress:False Matched:False	1	1	false	false	Correct	false	n/a	n-backMarkers
307.213143	0.000000	1-back	5436.475107	Steps:1 KeyPress:True Matched:False	0	1	true	false	Wrong	false	n/a	n-backMarkers
308.914372	0.000000	1-back	5438.176337	Steps:1 KeyPress:False Matched:False	1	1	false	false	Correct	false	n/a	n-backMarkers
309.802242	0.004000	dropped_samples	5439.064206	Dropped 1 samples	n/a	n/a	n/a	n/a	n/a	n/a	1	UoHDataOffsetStream
310.614445	0.000000	1-back	5439.876410	Steps:1 KeyPress:True Matched:False	0	1	true	false	Wrong	false	n/a	n-backMarkers
310.739725	0.012000	dropped_samples	5440.001690	Dropped 3 samples	n/a	n/a	n/a	n/a	n/a	n/a	3	UoHDataOffsetStream
312.315338	0.000000	1-back	5441.577302	Steps:1 KeyPress:False Matched:True	0	1	false	true	Wrong	false	n/a	n-backMarkers
314.016342	0.000000	1-back	5443.278306	Steps:1 KeyPress:True Matched:False	0	1	true	false	Wrong	false	n/a	n-backMarkers
315.717324	0.000000	1-back	5444.979289	Steps:1 KeyPress:True Matched:False	0	1	true	false	Wrong	false	n/a	n-backMarkers
317.417594	0.000000	1-back	5446.679559	Steps:1 KeyPress:False Matched:False	1	1	false	false	Correct	false	n/a	n-backMarkers
318.923355	0.012000	dropped_samples	5448.185319	Dropped 3 samples	n/a	n/a	n/a	n/a	n/a	n/a	3	UoHDataOffsetStream
319.118320	0.000000	1-back	5448.380284	Steps:1 KeyPress:True Matched:False	0	1	true	false	Wrong	false	n/a	n-backMarkers
320.819235	0.000000	1-back	5450.081200	Steps:1 KeyPress:False Matched:True	0	1	false	true	Wrong	false	n/a	n-backMarkers
322.520130	0.000000	1-back	5451.782094	Steps:1 KeyPress:False Matched:True	0	1	false	true	Wrong	false	n/a	n-backMarkers
323.410678	0.004000	dropped_samples	5452.672642	Dropped 1 samples	n/a	n/a	n/a	n/a	n/a	n/a	1	UoHDataOffsetStream
324.221136	0.000000	1-back	5453.483100	Steps:1 KeyPress:False Matched:False	1	1	false	false	Correct	false	n/a	n-backMarkers
324.753457	0.004000	dropped_samples	5454.015421	Dropped 1 samples	n/a	n/a	n/a	n/a	n/a	n/a	1	UoHDataOffsetStream
325.500542	0.012000	dropped_samples	5454.762507	Dropped 3 samples	n/a	n/a	n/a	n/a	n/a	n/a	3	UoHDataOffsetStream
325.921391	0.000000	1-back	5455.183355	Steps:1 KeyPress:True Matched:False	0	1	true	false	Wrong	false	n/a	n-backMarkers
327.622178	0.000000	1-back	5456.884142	Steps:1 KeyPress:False Matched:False	1	1	false	false	Correct	false	n/a	n-backMarkers
329.322359	0.000000	1-back	5458.584323	Steps:1 KeyPress:True Matched:False	0	1	true	false	Wrong	false	n/a	n-backMarkers
331.023544	0.000000	1-back	5460.285508	Steps:1 KeyPress:False Matched:False	1	1	false	false	Correct	false	n/a	n-backMarkers
332.724007	0.000000	1-back	5461.985971	Steps:1 KeyPress:True Matched:False	0	1	true	false	Wrong	false	n/a	n-backMarkers
332.893086	0.004000	dropped_samples	5462.155051	Dropped 1 samples	n/a	n/a	n/a	n/a	n/a	n/a	1	UoHDataOffsetStream
334.425274	0.000000	1-back	5463.687239	Steps:1 KeyPress:False Matched:False	1	1	false	false	Correct	false	n/a	n-backMarkers
336.127225	0.000000	1-back	5465.389190	Steps:1 KeyPress:True Matched:False	0	1	true	false	Wrong	false	n/a	n-backMarkers
337.828463	0.000000	1-back	5467.090427	Steps:1 KeyPress:False Matched:True	0	1	false	true	Wrong	false	n/a	n-backMarkers
339.529443	0.000000	1-back	5468.791407	Steps:1 KeyPress:False Matched:True	0	1	false	true	Wrong	false	n/a	n-backMarkers
341.231131	0.000000	1-back	5470.493095	Steps:1 KeyPress:False Matched:False	1	1	false	false	Correct	false	n/a	n-backMarkers
342.932243	0.000000	1-back	5472.194207	Steps:1 KeyPress:True Matched:False	0	1	true	false	Wrong	false	n/a	n-backMarkers
344.528869	0.004000	dropped_samples	5473.790833	Dropped 1 samples	n/a	n/a	n/a	n/a	n/a	n/a	1	UoHDataOffsetStream
344.632248	0.000000	1-back	5473.894212	Steps:1 KeyPress:False Matched:True	0	1	false	true	Wrong	false	n/a	n-backMarkers
346.333292	0.000000	1-back	5475.595256	Steps:1 KeyPress:False Matched:False	1	1	false	false	Correct	false	n/a	n-backMarkers
347.292561	0.004000	dropped_samples	5476.554526	Dropped 1 samples	n/a	n/a	n/a	n/a	n/a	n/a	1	UoHDataOffsetStream
348.034281	0.000000	1-back	5477.296245	Steps:1 KeyPress:True Matched:False	0	1	true	false	Wrong	false	n/a	n-backMarkers
349.735208	0.000000	1-back	5478.997173	Steps:1 KeyPress:False Matched:False	1	1	false	false	Correct	false	n/a	n-backMarkers
351.436212	0.000000	1-back	5480.698176	Steps:1 KeyPress:True Matched:False	0	1	true	false	Wrong	false	n/a	n-backMarkers
352.761365	0.012000	dropped_samples	5482.023329	Dropped 3 samples	n/a	n/a	n/a	n/a	n/a	n/a	3	UoHDataOffsetStream
353.136270	0.000000	1-back	5482.398234	Steps:1 KeyPress:False Matched:False	1	1	false	false	Correct	false	n/a	n-backMarkers
354.837148	0.000000	1-back	5484.099112	Steps:1 KeyPress:True Matched:False	0	1	true	false	Wrong	false	n/a	n-backMarkers
356.537311	0.000000	1-back	5485.799275	Steps:1 KeyPress:False Matched:True	0	1	false	true	Wrong	false	n/a	n-backMarkers
357.107274	0.012000	dropped_samples	5486.369238	Dropped 3 samples	n/a	n/a	n/a	n/a	n/a	n/a	3	UoHDataOffsetStream
358.238745	0.000000	1-back	5487.500709	Steps:1 KeyPress:False Matched:False	1	1	false	false	Correct	false	n/a	n-backMarkers
359.939404	0.000000	1-back	5489.201369	Steps:1 KeyPress:True Matched:False	0	1	true	false	Wrong	false	n/a	n-backMarkers
361.639797	0.000000	1-back	5490.901761	Steps:1 KeyPress:False Matched:False	1	1	false	false	Correct	false	n/a	n-backMarkers
363.340253	0.000000	1-back	5492.602217	Steps:1 KeyPress:True Matched:False	0	1	true	false	Wrong	false	n/a	n-backMarkers
365.040511	0.000000	1-back	5494.302476	Steps:1 KeyPress:False Matched:False	1	1	false	false	Correct	false	n/a	n-backMarkers
366.741316	0.000000	1-back	5496.003281	Steps:1 KeyPress:True Matched:False	0	1	true	false	Wrong	false	n/a	n-backMarkers
367.282873	0.004000	dropped_samples	5496.544837	Dropped 1 samples	n/a	n/a	n/a	n/a	n/a	n/a	1	UoHDataOffsetStream
368.442418	0.000000	1-back	5497.704383	Steps:1 KeyPress:False Matched:False	1	1	false	false	Correct	false	n/a	n-backMarkers
368.772091	0.004000	dropped_samples	5498.034055	Dropped 1 samples	n/a	n/a	n/a	n/a	n/a	n/a	1	UoHDataOffsetStream
369.323855	0.004000	dropped_samples	5498.585820	Dropped 1 samples	n/a	n/a	n/a	n/a	n/a	n/a	1	UoHDataOffsetStream
370.143570	0.000000	1-back	5499.405534	Steps:1 KeyPress:True Matched:False	0	1	true	false	Wrong	false	n/a	n-backMarkers
371.843389	0.000000	1-back	5501.105353	Steps:1 KeyPress:False Matched:True	0	1	false	true	Wrong	false	n/a	n-backMarkers
373.545126	0.000000	1-back	5502.807090	Steps:1 KeyPress:False Matched:False	1	1	false	false	Correct	false	n/a	n-backMarkers
375.245226	0.000000	1-back	5504.507191	Steps:1 KeyPress:True Matched:False	0	1	true	false	Wrong	false	n/a	n-backMarkers
376.947186	0.000000	1-back	5506.209150	Steps:1 KeyPress:False Matched:False	1	1	false	false	Correct	false	n/a	n-backMarkers
378.648109	0.000000	1-back	5507.910073	Steps:1 KeyPress:True Matched:False	0	1	true	false	Wrong	false	n/a	n-backMarkers
380.348668	0.000000	1-back	5509.610632	Steps:1 KeyPress:False Matched:False	1	1	false	false	Correct	false	n/a	n-backMarkers
382.050621	0.000000	1-back	5511.312585	Steps:1 KeyPress:True Matched:False	0	1	true	false	Wrong	false	n/a	n-backMarkers
383.752138	0.000000	1-back	5513.014102	Steps:1 KeyPress:False Matched:False	1	1	false	false	Correct	false	n/a	n-backMarkers
385.453157	0.000000	1-back	5514.715122	Steps:1 KeyPress:True Matched:False	0	1	true	false	Wrong	false	n/a	n-backMarkers
387.154147	0.000000	1-back	5516.416111	Steps:1 KeyPress:False Matched:False	1	1	false	false	Correct	false	n/a	n-backMarkers
387.444052	0.012000	dropped_samples	5516.706017	Dropped 3 samples	n/a	n/a	n/a	n/a	n/a	n/a	3	UoHDataOffsetStream
388.855993	0.000000	1-back	5518.117957	Steps:1 KeyPress:True Matched:False	0	1	true	false	Wrong	false	n/a	n-backMarkers
390.556180	0.000000	1-back	5519.818145	Steps:1 KeyPress:False Matched:False	1	1	false	false	Correct	false	n/a	n-backMarkers
392.257459	0.000000	1-back	5521.519424	Steps:1 KeyPress:True Matched:False	0	1	true	false	Wrong	false	n/a	n-backMarkers
393.958183	0.000000	1-back	5523.220147	Steps:1 KeyPress:False Matched:True	0	1	false	true	Wrong	false	n/a	n-backMarkers
393.972417	0.004000	dropped_samples	5523.234381	Dropped 1 samples	n/a	n/a	n/a	n/a	n/a	n/a	1	UoHDataOffsetStream
395.658632	0.000000	1-back	5524.920596	Steps:1 KeyPress:False Matched:False	1	1	false	false	Correct	false	n/a	n-backMarkers
397.359553	0.000000	1-back	5526.621517	Steps:1 KeyPress:False Matched:False	1	1	false	false	Correct	false	n/a	n-backMarkers
399.061104	0.000000	1-back	5528.323068	Steps:1 KeyPress:True Matched:True	1	1	true	true	Correct	false	n/a	n-backMarkers
400.762173	0.000000	1-back	5530.024137	Steps:1 KeyPress:False Matched:False	1	1	false	false	Correct	false	n/a	n-backMarkers
402.463174	0.000000	1-back	5531.725138	Steps:1 KeyPress:True Matched:False	0	1	true	false	Wrong	false	n/a	n-backMarkers
404.164070	0.000000	1-back	5533.426034	Steps:1 KeyPress:False Matched:True	0	1	false	true	Wrong	false	n/a	n-backMarkers
405.865139	0.000000	1-back	5535.127104	Steps:1 KeyPress:True Matched:True	1	1	true	true	Correct	false	n/a	n-backMarkers
406.716552	0.004000	dropped_samples	5535.978516	Dropped 1 samples	n/a	n/a	n/a	n/a	n/a	n/a	1	UoHDataOffsetStream
407.565236	0.000000	1-back	5536.827201	Steps:1 KeyPress:False Matched:False	1	1	false	false	Correct	false	n/a	n-backMarkers
407.986106	0.012000	dropped_samples	5537.248071	Dropped 3 samples	n/a	n/a	n/a	n/a	n/a	n/a	3	UoHDataOffsetStream
409.266236	0.000000	1-back	5538.528201	Steps:1 KeyPress:False Matched:False	1	1	false	false	Correct	false	n/a	n-backMarkers
417.977092	0.000000	2-back	5547.239057	Steps:2 KeyPress:False Matched:False	1	2	false	false	Correct	false	n/a	n-backMarkers
418.908922	0.004000	dropped_samples	5548.170886	Dropped 1 samples	n/a	n/a	n/a	n/a	n/a	n/a	1	UoHDataOffsetStream
419.050558	0.004000	dropped_samples	5548.312523	Dropped 1 samples	n/a	n/a	n/a	n/a	n/a	n/a	1	UoHDataOffsetStream
419.678112	0.000000	2-back	5548.940077	Steps:2 KeyPress:False Matched:False	1	2	false	false	Correct	false	n/a	n-backMarkers
420.227372	0.004000	dropped_samples	5549.489337	Dropped 1 samples	n/a	n/a	n/a	n/a	n/a	n/a	1	UoHDataOffsetStream
420.324965	0.004000	dropped_samples	5549.586929	Dropped 1 samples	n/a	n/a	n/a	n/a	n/a	n/a	1	UoHDataOffsetStream
421.379046	0.000000	2-back	5550.641010	Steps:2 KeyPress:False Matched:False	1	2	false	false	Correct	false	n/a	n-backMarkers
423.080135	0.000000	2-back	5552.342100	Steps:2 KeyPress:False Matched:False	1	2	false	false	Correct	false	n/a	n-backMarkers
424.780187	0.000000	2-back	5554.042151	Steps:2 KeyPress:True Matched:False	0	2	true	false	Wrong	false	n/a	n-backMarkers
426.482170	0.000000	2-back	5555.744134	Steps:2 KeyPress:False Matched:False	1	2	false	false	Correct	false	n/a	n-backMarkers
428.183069	0.000000	2-back	5557.445033	Steps:2 KeyPress:True Matched:True	1	2	true	true	Correct	false	n/a	n-backMarkers
429.884144	0.000000	2-back	5559.146109	Steps:2 KeyPress:False Matched:False	1	2	false	false	Correct	false	n/a	n-backMarkers
431.585263	0.000000	2-back	5560.847227	Steps:2 KeyPress:False Matched:True	0	2	false	true	Wrong	false	n/a	n-backMarkers
433.286087	0.000000	2-back	5562.548052	Steps:2 KeyPress:False Matched:False	1	2	false	false	Correct	false	n/a	n-backMarkers
434.987454	0.000000	2-back	5564.249418	Steps:2 KeyPress:False Matched:False	1	2	false	false	Correct	false	n/a	n-backMarkers
436.688715	0.000000	2-back	5565.950680	Steps:2 KeyPress:False Matched:False	1	2	false	false	Correct	false	n/a	n-backMarkers
438.389753	0.000000	2-back	5567.651718	Steps:2 KeyPress:True Matched:False	0	2	true	false	Wrong	false	n/a	n-backMarkers
440.096416	0.000000	2-back	5569.358381	Steps:2 KeyPress:False Matched:True	0	2	false	true	Wrong	false	n/a	n-backMarkers
440.676601	0.004000	dropped_samples	5569.938565	Dropped 1 samples	n/a	n/a	n/a	n/a	n/a	n/a	1	UoHDataOffsetStream
441.797124	0.000000	2-back	5571.059088	Steps:2 KeyPress:False Matched:False	1	2	false	false	Correct	false	n/a	n-backMarkers
443.498257	0.000000	2-back	5572.760221	Steps:2 KeyPress:True Matched:True	1	2	true	true	Correct	false	n/a	n-backMarkers
444.109275	0.012000	dropped_samples	5573.371239	Dropped 3 samples	n/a	n/a	n/a	n/a	n/a	n/a	3	UoHDataOffsetStream
445.199116	0.000000	2-back	5574.461081	Steps:2 KeyPress:False Matched:False	1	2	false	false	Correct	false	n/a	n-backMarkers
446.900546	0.000000	2-back	5576.162511	Steps:2 KeyPress:False Matched:False	1	2	false	false	Correct	false	n/a	n-backMarkers
448.601014	0.000000	2-back	5577.862978	Steps:2 KeyPress:True Matched:False	0	2	true	false	Wrong	false	n/a	n-backMarkers
450.305557	0.000000	2-back	5579.567521	Steps:2 KeyPress:False Matched:False	1	2	false	false	Correct	false	n/a	n-backMarkers
452.007512	0.000000	2-back	5581.269477	Steps:2 KeyPress:False Matched:False	1	2	false	false	Correct	false	n/a	n-backMarkers
453.708383	0.000000	2-back	5582.970348	Steps:2 KeyPress:False Matched:False	1	2	false	false	Correct	false	n/a	n-backMarkers
455.409053	0.000000	2-back	5584.671018	Steps:2 KeyPress:True Matched:True	1	2	true	true	Correct	false	n/a	n-backMarkers
456.106396	0.012000	dropped_samples	5585.368361	Dropped 3 samples	n/a	n/a	n/a	n/a	n/a	n/a	3	UoHDataOffsetStream
457.110071	0.000000	2-back	5586.372035	Steps:2 KeyPress:False Matched:False	1	2	false	false	Correct	false	n/a	n-backMarkers
458.811495	0.000000	2-back	5588.073460	Steps:2 KeyPress:False Matched:False	1	2	false	false	Correct	false	n/a	n-backMarkers
459.685443	0.004000	dropped_samples	5588.947407	Dropped 1 samples	n/a	n/a	n/a	n/a	n/a	n/a	1	UoHDataOffsetStream
460.512555	0.000000	2-back	5589.774520	Steps:2 KeyPress:True Matched:False	0	2	true	false	Wrong	false	n/a	n-backMarkers
461.150254	0.004000	dropped_samples	5590.412218	Dropped 1 samples	n/a	n/a	n/a	n/a	n/a	n/a	1	UoHDataOffsetStream
461.677629	0.004000	dropped_samples	5590.939593	Dropped 1 samples	n/a	n/a	n/a	n/a	n/a	n/a	1	UoHDataOffsetStream
462.214066	0.000000	2-back	5591.476031	Steps:2 KeyPress:False Matched:True	0	2	false	true	Wrong	false	n/a	n-backMarkers
463.914765	0.000000	2-back	5593.176729	Steps:2 KeyPress:False Matched:False	1	2	false	false	Correct	false	n/a	n-backMarkers
465.615312	0.000000	2-back	5594.877276	Steps:2 KeyPress:False Matched:False	1	2	false	false	Correct	false	n/a	n-backMarkers
466.404175	0.012000	dropped_samples	5595.666140	Dropped 3 samples	n/a	n/a	n/a	n/a	n/a	n/a	3	UoHDataOffsetStream
467.315551	0.000000	2-back	5596.577515	Steps:2 KeyPress:True Matched:False	0	2	true	false	Wrong	false	n/a	n-backMarkers
467.966720	0.004000	dropped_samples	5597.228684	Dropped 1 samples	n/a	n/a	n/a	n/a	n/a	n/a	1	UoHDataOffsetStream
469.016853	0.000000	2-back	5598.278817	Steps:2 KeyPress:False Matched:True	0	2	false	true	Wrong	false	n/a	n-backMarkers
470.718057	0.000000	2-back	5599.980021	Steps:2 KeyPress:False Matched:False	1	2	false	false	Correct	false	n/a	n-backMarkers
472.419680	0.000000	2-back	5601.681644	Steps:2 KeyPress:False Matched:True	0	2	false	true	Wrong	false	n/a	n-backMarkers
474.120598	0.000000	2-back	5603.382563	Steps:2 KeyPress:True Matched:False	0	2	true	false	Wrong	false	n/a	n-backMarkers
475.820989	0.000000	2-back	5605.082953	Steps:2 KeyPress:False Matched:False	1	2	false	false	Correct	false	n/a	n-backMarkers
477.522460	0.000000	2-back	5606.784424	Steps:2 KeyPress:False Matched:False	1	2	false	false	Correct	false	n/a	n-backMarkers
479.224039	0.000000	2-back	5608.486004	Steps:2 KeyPress:False Matched:False	1	2	false	false	Correct	false	n/a	n-backMarkers
480.925076	0.000000	2-back	5610.187040	Steps:2 KeyPress:True Matched:False	0	2	true	false	Wrong	false	n/a	n-backMarkers
482.626180	0.000000	2-back	5611.888145	Steps:2 KeyPress:False Matched:False	1	2	false	false	Correct	false	n/a	n-backMarkers
483.733339	0.004000	dropped_samples	5612.995303	Dropped 1 samples	n/a	n/a	n/a	n/a	n/a	n/a	1	UoHDataOffsetStream
484.327239	0.000000	2-back	5613.589203	Steps:2 KeyPress:False Matched:False	1	2	false	false	Correct	false	n/a	n-backMarkers
486.029067	0.000000	2-back	5615.291031	Steps:2 KeyPress:True Matched:False	0	2	true	false	Wrong	false	n/a	n-backMarkers
487.730326	0.000000	2-back	5616.992290	Steps:2 KeyPress:False Matched:True	0	2	false	true	Wrong	false	n/a	n-backMarkers
489.430995	0.000000	2-back	5618.692959	Steps:2 KeyPress:False Matched:False	1	2	false	false	Correct	false	n/a	n-backMarkers
491.132037	0.000000	2-back	5620.394001	Steps:2 KeyPress:True Matched:False	0	2	true	false	Wrong	false	n/a	n-backMarkers
492.833061	0.000000	2-back	5622.095025	Steps:2 KeyPress:False Matched:True	0	2	false	true	Wrong	false	n/a	n-backMarkers
493.210907	0.004000	dropped_samples	5622.472871	Dropped 1 samples	n/a	n/a	n/a	n/a	n/a	n/a	1	UoHDataOffsetStream
494.534063	0.000000	2-back	5623.796028	Steps:2 KeyPress:False Matched:False	1	2	false	false	Correct	false	n/a	n-backMarkers
496.235132	0.000000	2-back	5625.497096	Steps:2 KeyPress:False Matched:False	1	2	false	false	Correct	false	n/a	n-backMarkers
497.936014	0.000000	2-back	5627.197978	Steps:2 KeyPress:False Matched:False	1	2	false	false	Correct	false	n/a	n-backMarkers
499.636454	0.000000	2-back	5628.898418	Steps:2 KeyPress:False Matched:False	1	2	false	false	Correct	false	n/a	n-backMarkers
501.336982	0.000000	2-back	5630.598946	Steps:2 KeyPress:False Matched:False	1	2	false	false	Correct	false	n/a	n-backMarkers
503.038036	0.000000	2-back	5632.300000	Steps:2 KeyPress:False Matched:False	1	2	false	false	Correct	false	n/a	n-backMarkers
504.739950	0.000000	2-back	5634.001915	Steps:2 KeyPress:True Matched:False	0	2	true	false	Wrong	false	n/a	n-backMarkers
505.979489	0.004000	dropped_samples	5635.241454	Dropped 1 samples	n/a	n/a	n/a	n/a	n/a	n/a	1	UoHDataOffsetStream
506.441051	0.000000	2-back	5635.703015	Steps:2 KeyPress:False Matched:True	0	2	false	true	Wrong	false	n/a	n-backMarkers
508.142336	0.000000	2-back	5637.404301	Steps:2 KeyPress:False Matched:False	1	2	false	false	Correct	false	n/a	n-backMarkers
509.843085	0.000000	2-back	5639.105050	Steps:2 KeyPress:False Matched:False	1	2	false	false	Correct	false	n/a	n-backMarkers
511.543862	0.000000	2-back	5640.805827	Steps:2 KeyPress:True Matched:False	0	2	true	false	Wrong	false	n/a	n-backMarkers
513.243996	0.000000	2-back	5642.505960	Steps:2 KeyPress:False Matched:True	0	2	false	true	Wrong	false	n/a	n-backMarkers
514.945070	0.000000	2-back	5644.207034	Steps:2 KeyPress:False Matched:False	1	2	false	false	Correct	false	n/a	n-backMarkers
516.645660	0.000000	2-back	5645.907624	Steps:2 KeyPress:False Matched:False	1	2	false	false	Correct	false	n/a	n-backMarkers
518.346067	0.000000	2-back	5647.608031	Steps:2 KeyPress:True Matched:False	0	2	true	false	Wrong	false	n/a	n-backMarkers
518.484410	0.004000	dropped_samples	5647.746375	Dropped 1 samples	n/a	n/a	n/a	n/a	n/a	n/a	1	UoHDataOffsetStream
520.046632	0.000000	2-back	5649.308597	Steps:2 KeyPress:False Matched:False	1	2	false	false	Correct	false	n/a	n-backMarkers
521.747841	0.000000	2-back	5651.009806	Steps:2 KeyPress:False Matched:False	1	2	false	false	Correct	false	n/a	n-backMarkers
523.448374	0.000000	2-back	5652.710339	Steps:2 KeyPress:True Matched:False	0	2	true	false	Wrong	false	n/a	n-backMarkers
525.148877	0.000000	2-back	5654.410842	Steps:2 KeyPress:False Matched:True	0	2	false	true	Wrong	false	n/a	n-backMarkers
525.203147	0.008000	dropped_samples	5654.465111	Dropped 2 samples	n/a	n/a	n/a	n/a	n/a	n/a	2	UoHDataOffsetStream
526.849163	0.000000	2-back	5656.111127	Steps:2 KeyPress:False Matched:False	1	2	false	false	Correct	false	n/a	n-backMarkers
528.550034	0.000000	2-back	5657.811998	Steps:2 KeyPress:False Matched:False	1	2	false	false	Correct	false	n/a	n-backMarkers
530.250501	0.000000	2-back	5659.512465	Steps:2 KeyPress:True Matched:False	0	2	true	false	Wrong	false	n/a	n-backMarkers
530.989323	0.004000	dropped_samples	5660.251288	Dropped 1 samples	n/a	n/a	n/a	n/a	n/a	n/a	1	UoHDataOffsetStream
531.155316	0.004000	dropped_samples	5660.417281	Dropped 1 samples	n/a	n/a	n/a	n/a	n/a	n/a	1	UoHDataOffsetStream
531.951872	0.000000	2-back	5661.213836	Steps:2 KeyPress:False Matched:False	1	2	false	false	Correct	false	n/a	n-backMarkers
533.652240	0.000000	2-back	5662.914204	Steps:2 KeyPress:False Matched:False	1	2	false	false	Correct	false	n/a	n-backMarkers
535.353001	0.000000	2-back	5664.614965	Steps:2 KeyPress:False Matched:False	1	2	false	false	Correct	false	n/a	n-backMarkers
537.054008	0.000000	2-back	5666.315972	Steps:2 KeyPress:False Matched:False	1	2	false	false	Correct	false	n/a	n-backMarkers
537.947404	0.004000	dropped_samples	5667.209368	Dropped 1 samples	n/a	n/a	n/a	n/a	n/a	n/a	1	UoHDataOffsetStream
538.754714	0.000000	2-back	5668.016679	Steps:2 KeyPress:False Matched:False	1	2	false	false	Correct	false	n/a	n-backMarkers
539.631928	0.004000	dropped_samples	5668.893893	Dropped 1 samples	n/a	n/a	n/a	n/a	n/a	n/a	1	UoHDataOffsetStream
539.797928	0.012000	dropped_samples	5669.059893	Dropped 3 samples	n/a	n/a	n/a	n/a	n/a	n/a	3	UoHDataOffsetStream
540.455255	0.000000	2-back	5669.717219	Steps:2 KeyPress:False Matched:False	1	2	false	false	Correct	false	n/a	n-backMarkers
541.502036	0.008000	dropped_samples	5670.764000	Dropped 2 samples	n/a	n/a	n/a	n/a	n/a	n/a	2	UoHDataOffsetStream
542.156305	0.000000	2-back	5671.418269	Steps:2 KeyPress:False Matched:True	0	2	false	true	Wrong	false	n/a	n-backMarkers
543.132908	0.004000	dropped_samples	5672.394872	Dropped 1 samples	n/a	n/a	n/a	n/a	n/a	n/a	1	UoHDataOffsetStream
543.857957	0.000000	2-back	5673.119921	Steps:2 KeyPress:False Matched:False	1	2	false	false	Correct	false	n/a	n-backMarkers
545.558252	0.000000	2-back	5674.820216	Steps:2 KeyPress:False Matched:False	1	2	false	false	Correct	false	n/a	n-backMarkers
547.259048	0.000000	2-back	5676.521013	Steps:2 KeyPress:True Matched:False	0	2	true	false	Wrong	false	n/a	n-backMarkers
548.959890	0.000000	2-back	5678.221854	Steps:2 KeyPress:False Matched:False	1	2	false	false	Correct	false	n/a	n-backMarkers
549.373167	0.012000	dropped_samples	5678.635131	Dropped 3 samples	n/a	n/a	n/a	n/a	n/a	n/a	3	UoHDataOffsetStream
550.661115	0.000000	2-back	5679.923079	Steps:2 KeyPress:False Matched:False	1	2	false	false	Correct	false	n/a	n-backMarkers
552.254040	0.012000	dropped_samples	5681.516005	Dropped 3 samples	n/a	n/a	n/a	n/a	n/a	n/a	3	UoHDataOffsetStream
552.362130	0.000000	2-back	5681.624094	Steps:2 KeyPress:True Matched:False	0	2	true	false	Wrong	false	n/a	n-backMarkers
553.045042	0.004000	dropped_samples	5682.307007	Dropped 1 samples	n/a	n/a	n/a	n/a	n/a	n/a	1	UoHDataOffsetStream
553.191505	0.004000	dropped_samples	5682.453469	Dropped 1 samples	n/a	n/a	n/a	n/a	n/a	n/a	1	UoHDataOffsetStream
554.063828	0.000000	2-back	5683.325792	Steps:2 KeyPress:False Matched:False	1	2	false	false	Correct	false	n/a	n-backMarkers
555.764955	0.000000	2-back	5685.026920	Steps:2 KeyPress:False Matched:False	1	2	false	false	Correct	false	n/a	n-backMarkers
557.127115	0.004000	dropped_samples	5686.389079	Dropped 1 samples	n/a	n/a	n/a	n/a	n/a	n/a	1	UoHDataOffsetStream
557.466744	0.000000	2-back	5686.728708	Steps:2 KeyPress:True Matched:False	0	2	true	false	Wrong	false	n/a	n-backMarkers
558.206222	0.012000	dropped_samples	5687.468186	Dropped 3 samples	n/a	n/a	n/a	n/a	n/a	n/a	3	UoHDataOffsetStream
559.167905	0.000000	2-back	5688.429870	Steps:2 KeyPress:False Matched:True	0	2	false	true	Wrong	false	n/a	n-backMarkers
559.861469	0.004000	dropped_samples	5689.123433	Dropped 1 samples	n/a	n/a	n/a	n/a	n/a	n/a	1	UoHDataOffsetStream
560.867934	0.000000	2-back	5690.129899	Steps:2 KeyPress:False Matched:False	1	2	false	false	Correct	false	n/a	n-backMarkers
562.568906	0.000000	2-back	5691.830871	Steps:2 KeyPress:False Matched:True	0	2	false	true	Wrong	false	n/a	n-backMarkers
564.270312	0.000000	2-back	5693.532276	Steps:2 KeyPress:False Matched:False	1	2	false	false	Correct	false	n/a	n-backMarkers
565.971308	0.000000	2-back	5695.233273	Steps:2 KeyPress:False Matched:False	1	2	false	false	Correct	false	n/a	n-backMarkers
566.677952	0.012000	dropped_samples	5695.939917	Dropped 3 samples	n/a	n/a	n/a	n/a	n/a	n/a	3	UoHDataOffsetStream
567.671349	0.000000	2-back	5696.933314	Steps:2 KeyPress:True Matched:False	0	2	true	false	Wrong	false	n/a	n-backMarkers
569.371960	0.000000	2-back	5698.633924	Steps:2 KeyPress:False Matched:True	0	2	false	true	Wrong	false	n/a	n-backMarkers
570.686706	0.012000	dropped_samples	5699.948670	Dropped 3 samples	n/a	n/a	n/a	n/a	n/a	n/a	3	UoHDataOffsetStream
571.072423	0.000000	2-back	5700.334388	Steps:2 KeyPress:False Matched:False	1	2	false	false	Correct	false	n/a	n-backMarkers
572.773111	0.000000	2-back	5702.035076	Steps:2 KeyPress:False Matched:False	1	2	false	false	Correct	false	n/a	n-backMarkers
573.445475	0.012000	dropped_samples	5702.707439	Dropped 3 samples	n/a	n/a	n/a	n/a	n/a	n/a	3	UoHDataOffsetStream
574.474073	0.000000	2-back	5703.736037	Steps:2 KeyPress:True Matched:False	0	2	true	false	Wrong	false	n/a	n-backMarkers
576.175951	0.000000	2-back	5705.437915	Steps:2 KeyPress:False Matched:False	1	2	false	false	Correct	false	n/a	n-backMarkers
576.853684	0.012000	dropped_samples	5706.115648	Dropped 3 samples	n/a	n/a	n/a	n/a	n/a	n/a	3	UoHDataOffsetStream
577.068542	0.012000	dropped_samples	5706.330507	Dropped 3 samples	n/a	n/a	n/a	n/a	n/a	n/a	3	UoHDataOffsetStream
577.876913	0.000000	2-back	5707.138878	Steps:2 KeyPress:False Matched:False	1	2	false	false	Correct	false	n/a	n-backMarkers
578.294241	0.012000	dropped_samples	5707.556206	Dropped 3 samples	n/a	n/a	n/a	n/a	n/a	n/a	3	UoHDataOffsetStream
578.845907	0.012000	dropped_samples	5708.107872	Dropped 3 samples	n/a	n/a	n/a	n/a	n/a	n/a	3	UoHDataOffsetStream
579.577950	0.000000	2-back	5708.839914	Steps:2 KeyPress:True Matched:False	0	2	true	false	Wrong	false	n/a	n-backMarkers
580.237495	0.012000	dropped_samples	5709.499459	Dropped 3 samples	n/a	n/a	n/a	n/a	n/a	n/a	3	UoHDataOffsetStream
581.278216	0.000000	2-back	5710.540180	Steps:2 KeyPress:False Matched:True	0	2	false	true	Wrong	false	n/a	n-backMarkers
581.799974	0.008000	dropped_samples	5711.061939	Dropped 2 samples	n/a	n/a	n/a	n/a	n/a	n/a	2	UoHDataOffsetStream
582.979511	0.000000	2-back	5712.241476	Steps:2 KeyPress:False Matched:False	1	2	false	false	Correct	false	n/a	n-backMarkers
584.681107	0.000000	2-back	5713.943071	Steps:2 KeyPress:False Matched:False	1	2	false	false	Correct	false	n/a	n-backMarkers
586.381944	0.000000	2-back	5715.643909	Steps:2 KeyPress:True Matched:False	0	2	true	false	Wrong	false	n/a	n-backMarkers
590.198447	0.004000	dropped_samples	5719.460411	Dropped 1 samples	n/a	n/a	n/a	n/a	n/a	n/a	1	UoHDataOffsetStream
591.541226	0.012000	dropped_samples	5720.803190	Dropped 3 samples	n/a	n/a	n/a	n/a	n/a	n/a	3	UoHDataOffsetStream
592.000200	0.004000	dropped_samples	5721.262165	Dropped 1 samples	n/a	n/a	n/a	n/a	n/a	n/a	1	UoHDataOffsetStream
595.093348	0.000000	3-back	5724.355313	Steps:3 KeyPress:False Matched:False	1	3	false	false	Correct	false	n/a	n-backMarkers
596.794911	0.000000	3-back	5726.056876	Steps:3 KeyPress:False Matched:False	1	3	false	false	Correct	false	n/a	n-backMarkers
596.800283	0.004000	dropped_samples	5726.062247	Dropped 1 samples	n/a	n/a	n/a	n/a	n/a	n/a	1	UoHDataOffsetStream
597.376205	0.004000	dropped_samples	5726.638169	Dropped 1 samples	n/a	n/a	n/a	n/a	n/a	n/a	1	UoHDataOffsetStream
598.495050	0.000000	3-back	5727.757014	Steps:3 KeyPress:False Matched:False	1	3	false	false	Correct	false	n/a	n-backMarkers
598.909452	0.004000	dropped_samples	5728.171416	Dropped 1 samples	n/a	n/a	n/a	n/a	n/a	n/a	1	UoHDataOffsetStream
600.195211	0.000000	3-back	5729.457175	Steps:3 KeyPress:True Matched:False	0	3	true	false	Wrong	false	n/a	n-backMarkers
601.895325	0.000000	3-back	5731.157290	Steps:3 KeyPress:False Matched:False	1	3	false	false	Correct	false	n/a	n-backMarkers
602.005106	0.004000	dropped_samples	5731.267071	Dropped 1 samples	n/a	n/a	n/a	n/a	n/a	n/a	1	UoHDataOffsetStream
603.596214	0.000000	3-back	5732.858179	Steps:3 KeyPress:True Matched:False	0	3	true	false	Wrong	false	n/a	n-backMarkers
605.298083	0.000000	3-back	5734.560048	Steps:3 KeyPress:False Matched:False	1	3	false	false	Correct	false	n/a	n-backMarkers
606.999812	0.000000	3-back	5736.261777	Steps:3 KeyPress:False Matched:False	1	3	false	false	Correct	false	n/a	n-backMarkers
608.700809	0.000000	3-back	5737.962774	Steps:3 KeyPress:False Matched:False	1	3	false	false	Correct	false	n/a	n-backMarkers
610.401965	0.000000	3-back	5739.663930	Steps:3 KeyPress:False Matched:False	1	3	false	false	Correct	false	n/a	n-backMarkers
612.103040	0.000000	3-back	5741.365004	Steps:3 KeyPress:False Matched:False	1	3	false	false	Correct	false	n/a	n-backMarkers
612.327427	0.012000	dropped_samples	5741.589392	Dropped 3 samples	n/a	n/a	n/a	n/a	n/a	n/a	3	UoHDataOffsetStream
612.996332	0.012000	dropped_samples	5742.258297	Dropped 3 samples	n/a	n/a	n/a	n/a	n/a	n/a	3	UoHDataOffsetStream
613.803867	0.000000	3-back	5743.065831	Steps:3 KeyPress:False Matched:False	1	3	false	false	Correct	false	n/a	n-backMarkers
615.504829	0.000000	3-back	5744.766793	Steps:3 KeyPress:False Matched:False	1	3	false	false	Correct	false	n/a	n-backMarkers
617.204846	0.000000	3-back	5746.466810	Steps:3 KeyPress:False Matched:False	1	3	false	false	Correct	false	n/a	n-backMarkers
618.905746	0.000000	3-back	5748.167710	Steps:3 KeyPress:False Matched:True	0	3	false	true	Wrong	false	n/a	n-backMarkers
620.607399	0.000000	3-back	5749.869364	Steps:3 KeyPress:False Matched:False	1	3	false	false	Correct	false	n/a	n-backMarkers
622.307822	0.000000	3-back	5751.569787	Steps:3 KeyPress:False Matched:False	1	3	false	false	Correct	false	n/a	n-backMarkers
624.008792	0.000000	3-back	5753.270757	Steps:3 KeyPress:True Matched:True	1	3	true	true	Correct	false	n/a	n-backMarkers
625.709656	0.000000	3-back	5754.971620	Steps:3 KeyPress:False Matched:False	1	3	false	false	Correct	false	n/a	n-backMarkers
627.410461	0.000000	3-back	5756.672425	Steps:3 KeyPress:False Matched:False	1	3	false	false	Correct	false	n/a	n-backMarkers
629.111112	0.000000	3-back	5758.373076	Steps:3 KeyPress:False Matched:False	1	3	false	false	Correct	false	n/a	n-backMarkers
630.812121	0.000000	3-back	5760.074086	Steps:3 KeyPress:True Matched:False	0	3	true	false	Wrong	false	n/a	n-backMarkers
631.189775	0.004000	dropped_samples	5760.451740	Dropped 1 samples	n/a	n/a	n/a	n/a	n/a	n/a	1	UoHDataOffsetStream
632.512918	0.000000	3-back	5761.774882	Steps:3 KeyPress:False Matched:False	1	3	false	false	Correct	false	n/a	n-backMarkers
634.213354	0.000000	3-back	5763.475318	Steps:3 KeyPress:False Matched:False	1	3	false	false	Correct	false	n/a	n-backMarkers
635.914682	0.000000	3-back	5765.176646	Steps:3 KeyPress:False Matched:False	1	3	false	false	Correct	false	n/a	n-backMarkers
637.614819	0.000000	3-back	5766.876783	Steps:3 KeyPress:True Matched:False	0	3	true	false	Wrong	false	n/a	n-backMarkers
639.280619	0.004000	dropped_samples	5768.542583	Dropped 1 samples	n/a	n/a	n/a	n/a	n/a	n/a	1	UoHDataOffsetStream
639.315866	0.000000	3-back	5768.577830	Steps:3 KeyPress:False Matched:False	1	3	false	false	Correct	false	n/a	n-backMarkers
639.925142	0.004000	dropped_samples	5769.187106	Dropped 1 samples	n/a	n/a	n/a	n/a	n/a	n/a	1	UoHDataOffsetStream
640.887445	0.012000	dropped_samples	5770.149409	Dropped 3 samples	n/a	n/a	n/a	n/a	n/a	n/a	3	UoHDataOffsetStream
641.015890	0.000000	3-back	5770.277854	Steps:3 KeyPress:False Matched:False	1	3	false	false	Correct	false	n/a	n-backMarkers
641.560892	0.004000	dropped_samples	5770.822856	Dropped 1 samples	n/a	n/a	n/a	n/a	n/a	n/a	1	UoHDataOffsetStream
642.716832	0.000000	3-back	5771.978796	Steps:3 KeyPress:False Matched:False	1	3	false	false	Correct	false	n/a	n-backMarkers
644.417865	0.000000	3-back	5773.679829	Steps:3 KeyPress:True Matched:False	0	3	true	false	Wrong	false	n/a	n-backMarkers
646.118674	0.000000	3-back	5775.380639	Steps:3 KeyPress:False Matched:True	0	3	false	true	Wrong	false	n/a	n-backMarkers
647.819757	0.000000	3-back	5777.081721	Steps:3 KeyPress:False Matched:False	1	3	false	false	Correct	false	n/a	n-backMarkers
649.521055	0.000000	3-back	5778.783019	Steps:3 KeyPress:True Matched:False	0	3	true	false	Wrong	false	n/a	n-backMarkers
651.222759	0.000000	3-back	5780.484723	Steps:3 KeyPress:False Matched:False	1	3	false	false	Correct	false	n/a	n-backMarkers
652.923143	0.000000	3-back	5782.185107	Steps:3 KeyPress:False Matched:False	1	3	false	false	Correct	false	n/a	n-backMarkers
654.624020	0.000000	3-back	5783.885984	Steps:3 KeyPress:True Matched:False	0	3	true	false	Wrong	false	n/a	n-backMarkers
656.324756	0.000000	3-back	5785.586720	Steps:3 KeyPress:False Matched:False	1	3	false	false	Correct	false	n/a	n-backMarkers
657.806048	0.004000	dropped_samples	5787.068013	Dropped 1 samples	n/a	n/a	n/a	n/a	n/a	n/a	1	UoHDataOffsetStream
658.025823	0.000000	3-back	5787.287788	Steps:3 KeyPress:True Matched:False	0	3	true	false	Wrong	false	n/a	n-backMarkers
659.726417	0.000000	3-back	5788.988381	Steps:3 KeyPress:False Matched:False	1	3	false	false	Correct	false	n/a	n-backMarkers
661.428150	0.000000	3-back	5790.690115	Steps:3 KeyPress:False Matched:False	1	3	false	false	Correct	false	n/a	n-backMarkers
663.129826	0.000000	3-back	5792.391790	Steps:3 KeyPress:False Matched:False	1	3	false	false	Correct	false	n/a	n-backMarkers
664.830786	0.000000	3-back	5794.092750	Steps:3 KeyPress:False Matched:False	1	3	false	false	Correct	false	n/a	n-backMarkers
666.531705	0.000000	3-back	5795.793669	Steps:3 KeyPress:False Matched:False	1	3	false	false	Correct	false	n/a	n-backMarkers
668.231839	0.000000	3-back	5797.493803	Steps:3 KeyPress:True Matched:False	0	3	true	false	Wrong	false	n/a	n-backMarkers
669.495545	0.004000	dropped_samples	5798.757510	Dropped 1 samples	n/a	n/a	n/a	n/a	n/a	n/a	1	UoHDataOffsetStream
669.931859	0.000000	3-back	5799.193824	Steps:3 KeyPress:False Matched:True	0	3	false	true	Wrong	false	n/a	n-backMarkers
670.047256	0.004000	dropped_samples	5799.309220	Dropped 1 samples	n/a	n/a	n/a	n/a	n/a	n/a	1	UoHDataOffsetStream
671.632909	0.000000	3-back	5800.894874	Steps:3 KeyPress:False Matched:False	1	3	false	false	Correct	false	n/a	n-backMarkers
673.333129	0.000000	3-back	5802.595094	Steps:3 KeyPress:False Matched:False	1	3	false	false	Correct	false	n/a	n-backMarkers
675.034007	0.000000	3-back	5804.295972	Steps:3 KeyPress:False Matched:False	1	3	false	false	Correct	false	n/a	n-backMarkers
676.735747	0.000000	3-back	5805.997712	Steps:3 KeyPress:True Matched:False	0	3	true	false	Wrong	false	n/a	n-backMarkers
678.436763	0.000000	3-back	5807.698728	Steps:3 KeyPress:False Matched:False	1	3	false	false	Correct	false	n/a	n-backMarkers
679.695859	0.012000	dropped_samples	5808.957824	Dropped 3 samples	n/a	n/a	n/a	n/a	n/a	n/a	3	UoHDataOffsetStream
679.935017	0.004000	dropped_samples	5809.196982	Dropped 1 samples	n/a	n/a	n/a	n/a	n/a	n/a	1	UoHDataOffsetStream
680.137785	0.000000	3-back	5809.399749	Steps:3 KeyPress:True Matched:False	0	3	true	false	Wrong	false	n/a	n-backMarkers
681.838741	0.000000	3-back	5811.100705	Steps:3 KeyPress:False Matched:False	1	3	false	false	Correct	false	n/a	n-backMarkers
683.539323	0.000000	3-back	5812.801287	Steps:3 KeyPress:False Matched:False	1	3	false	false	Correct	false	n/a	n-backMarkers
684.422400	0.004000	dropped_samples	5813.684364	Dropped 1 samples	n/a	n/a	n/a	n/a	n/a	n/a	1	UoHDataOffsetStream
685.240219	0.000000	3-back	5814.502183	Steps:3 KeyPress:False Matched:False	1	3	false	false	Correct	false	n/a	n-backMarkers
686.940799	0.000000	3-back	5816.202764	Steps:3 KeyPress:False Matched:False	1	3	false	false	Correct	false	n/a	n-backMarkers
688.641916	0.000000	3-back	5817.903880	Steps:3 KeyPress:False Matched:False	1	3	false	false	Correct	false	n/a	n-backMarkers
690.343750	0.000000	3-back	5819.605714	Steps:3 KeyPress:True Matched:False	0	3	true	false	Wrong	false	n/a	n-backMarkers
690.809029	0.004000	dropped_samples	5820.070994	Dropped 1 samples	n/a	n/a	n/a	n/a	n/a	n/a	1	UoHDataOffsetStream
692.045750	0.000000	3-back	5821.307715	Steps:3 KeyPress:False Matched:True	0	3	false	true	Wrong	false	n/a	n-backMarkers
693.709441	0.012000	dropped_samples	5822.971406	Dropped 3 samples	n/a	n/a	n/a	n/a	n/a	n/a	3	UoHDataOffsetStream
693.746202	0.000000	3-back	5823.008166	Steps:3 KeyPress:False Matched:False	1	3	false	false	Correct	false	n/a	n-backMarkers
695.447171	0.000000	3-back	5824.709135	Steps:3 KeyPress:False Matched:False	1	3	false	false	Correct	false	n/a	n-backMarkers
695.657721	0.004000	dropped_samples	5824.919686	Dropped 1 samples	n/a	n/a	n/a	n/a	n/a	n/a	1	UoHDataOffsetStream
697.148776	0.000000	3-back	5826.410740	Steps:3 KeyPress:False Matched:False	1	3	false	false	Correct	false	n/a	n-backMarkers
698.850677	0.000000	3-back	5828.112642	Steps:3 KeyPress:True Matched:False	0	3	true	false	Wrong	false	n/a	n-backMarkers
700.501595	0.012000	dropped_samples	5829.763559	Dropped 3 samples	n/a	n/a	n/a	n/a	n/a	n/a	3	UoHDataOffsetStream
700.550943	0.000000	3-back	5829.812907	Steps:3 KeyPress:False Matched:True	0	3	false	true	Wrong	false	n/a	n-backMarkers
701.102020	0.004000	dropped_samples	5830.363985	Dropped 1 samples	n/a	n/a	n/a	n/a	n/a	n/a	1	UoHDataOffsetStream
702.251987	0.000000	3-back	5831.513951	Steps:3 KeyPress:False Matched:False	1	3	false	false	Correct	false	n/a	n-backMarkers
703.528813	0.004000	dropped_samples	5832.790777	Dropped 1 samples	n/a	n/a	n/a	n/a	n/a	n/a	1	UoHDataOffsetStream
703.952827	0.000000	3-back	5833.214791	Steps:3 KeyPress:True Matched:False	0	3	true	false	Wrong	false	n/a	n-backMarkers
705.653737	0.000000	3-back	5834.915701	Steps:3 KeyPress:False Matched:False	1	3	false	false	Correct	false	n/a	n-backMarkers
707.293528	0.012000	dropped_samples	5836.555493	Dropped 3 samples	n/a	n/a	n/a	n/a	n/a	n/a	3	UoHDataOffsetStream
707.353811	0.000000	3-back	5836.615776	Steps:3 KeyPress:False Matched:False	1	3	false	false	Correct	false	n/a	n-backMarkers
709.055104	0.000000	3-back	5838.317068	Steps:3 KeyPress:False Matched:False	1	3	false	false	Correct	false	n/a	n-backMarkers
710.755991	0.000000	3-back	5840.017955	Steps:3 KeyPress:False Matched:False	1	3	false	false	Correct	false	n/a	n-backMarkers
712.456767	0.000000	3-back	5841.718731	Steps:3 KeyPress:False Matched:False	1	3	false	false	Correct	false	n/a	n-backMarkers
714.157861	0.000000	3-back	5843.419826	Steps:3 KeyPress:False Matched:False	1	3	false	false	Correct	false	n/a	n-backMarkers
715.858840	0.000000	3-back	5845.120804	Steps:3 KeyPress:True Matched:False	0	3	true	false	Wrong	false	n/a	n-backMarkers
717.559738	0.000000	3-back	5846.821702	Steps:3 KeyPress:False Matched:False	1	3	false	false	Correct	false	n/a	n-backMarkers
719.260741	0.000000	3-back	5848.522706	Steps:3 KeyPress:False Matched:False	1	3	false	false	Correct	false	n/a	n-backMarkers
720.962724	0.000000	3-back	5850.224689	Steps:3 KeyPress:False Matched:False	1	3	false	false	Correct	false	n/a	n-backMarkers
722.663594	0.000000	3-back	5851.925559	Steps:3 KeyPress:True Matched:False	0	3	true	false	Wrong	false	n/a	n-backMarkers
723.157756	0.012000	dropped_samples	5852.419721	Dropped 3 samples	n/a	n/a	n/a	n/a	n/a	n/a	3	UoHDataOffsetStream
724.364744	0.000000	3-back	5853.626708	Steps:3 KeyPress:False Matched:True	0	3	false	true	Wrong	false	n/a	n-backMarkers
726.066695	0.000000	3-back	5855.328659	Steps:3 KeyPress:False Matched:False	1	3	false	false	Correct	false	n/a	n-backMarkers
726.785709	0.012000	dropped_samples	5856.047673	Dropped 3 samples	n/a	n/a	n/a	n/a	n/a	n/a	3	UoHDataOffsetStream
727.767751	0.000000	3-back	5857.029715	Steps:3 KeyPress:False Matched:False	1	3	false	false	Correct	false	n/a	n-backMarkers
729.468233	0.000000	3-back	5858.730197	Steps:3 KeyPress:False Matched:False	1	3	false	false	Correct	false	n/a	n-backMarkers
730.237882	0.004000	dropped_samples	5859.499847	Dropped 1 samples	n/a	n/a	n/a	n/a	n/a	n/a	1	UoHDataOffsetStream
731.168823	0.000000	3-back	5860.430787	Steps:3 KeyPress:False Matched:False	1	3	false	false	Correct	false	n/a	n-backMarkers
732.869794	0.000000	3-back	5862.131758	Steps:3 KeyPress:False Matched:True	0	3	false	true	Wrong	false	n/a	n-backMarkers
734.571619	0.000000	3-back	5863.833584	Steps:3 KeyPress:False Matched:False	1	3	false	false	Correct	false	n/a	n-backMarkers
735.711469	0.004000	dropped_samples	5864.973434	Dropped 1 samples	n/a	n/a	n/a	n/a	n/a	n/a	1	UoHDataOffsetStream
736.272356	0.000000	3-back	5865.534321	Steps:3 KeyPress:False Matched:False	1	3	false	false	Correct	false	n/a	n-backMarkers
736.575764	0.012000	dropped_samples	5865.837729	Dropped 3 samples	n/a	n/a	n/a	n/a	n/a	n/a	3	UoHDataOffsetStream
737.972733	0.000000	3-back	5867.234698	Steps:3 KeyPress:False Matched:False	1	3	false	false	Correct	false	n/a	n-backMarkers
739.432245	0.004000	dropped_samples	5868.694210	Dropped 1 samples	n/a	n/a	n/a	n/a	n/a	n/a	1	UoHDataOffsetStream
739.673724	0.000000	3-back	5868.935689	Steps:3 KeyPress:False Matched:False	1	3	false	false	Correct	false	n/a	n-backMarkers
740.535745	0.004000	dropped_samples	5869.797709	Dropped 1 samples	n/a	n/a	n/a	n/a	n/a	n/a	1	UoHDataOffsetStream
741.374879	0.000000	3-back	5870.636843	Steps:3 KeyPress:False Matched:False	1	3	false	false	Correct	false	n/a	n-backMarkers
743.076699	0.000000	3-back	5872.338663	Steps:3 KeyPress:True Matched:False	0	3	true	false	Wrong	false	n/a	n-backMarkers
744.686151	0.008000	dropped_samples	5873.948116	Dropped 2 samples	n/a	n/a	n/a	n/a	n/a	n/a	2	UoHDataOffsetStream
744.777701	0.000000	3-back	5874.039665	Steps:3 KeyPress:False Matched:False	1	3	false	false	Correct	false	n/a	n-backMarkers
745.721294	0.012000	dropped_samples	5874.983259	Dropped 3 samples	n/a	n/a	n/a	n/a	n/a	n/a	3	UoHDataOffsetStream
746.477774	0.000000	3-back	5875.739739	Steps:3 KeyPress:False Matched:False	1	3	false	false	Correct	false	n/a	n-backMarkers
748.179194	0.000000	3-back	5877.441158	Steps:3 KeyPress:False Matched:False	1	3	false	false	Correct	false	n/a	n-backMarkers
749.880803	0.000000	3-back	5879.142767	Steps:3 KeyPress:True Matched:False	0	3	true	false	Wrong	false	n/a	n-backMarkers
751.581749	0.000000	3-back	5880.843713	Steps:3 KeyPress:False Matched:False	1	3	false	false	Correct	false	n/a	n-backMarkers
753.282781	0.000000	3-back	5882.544746	Steps:3 KeyPress:False Matched:False	1	3	false	false	Correct	false	n/a	n-backMarkers
754.984710	0.000000	3-back	5884.246674	Steps:3 KeyPress:False Matched:False	1	3	false	false	Correct	false	n/a	n-backMarkers
756.685728	0.000000	3-back	5885.947692	Steps:3 KeyPress:False Matched:False	1	3	false	false	Correct	false	n/a	n-backMarkers
758.385786	0.000000	3-back	5887.647751	Steps:3 KeyPress:False Matched:True	0	3	false	true	Wrong	false	n/a	n-backMarkers
758.821930	0.004000	dropped_samples	5888.083895	Dropped 1 samples	n/a	n/a	n/a	n/a	n/a	n/a	1	UoHDataOffsetStream
760.086582	0.000000	3-back	5889.348546	Steps:3 KeyPress:False Matched:False	1	3	false	false	Correct	false	n/a	n-backMarkers
761.787015	0.000000	3-back	5891.048979	Steps:3 KeyPress:False Matched:False	1	3	false	false	Correct	false	n/a	n-backMarkers
763.487811	0.000000	3-back	5892.749775	Steps:3 KeyPress:False Matched:False	1	3	false	false	Correct	false	n/a	n-backMarkers
765.111001	0.012000	dropped_samples	5894.372966	Dropped 3 samples	n/a	n/a	n/a	n/a	n/a	n/a	3	UoHDataOffsetStream
771.302424	0.004000	dropped_samples	5900.564389	Dropped 1 samples	n/a	n/a	n/a	n/a	n/a	n/a	1	UoHDataOffsetStream
772.195685	0.000000	4-back	5901.457650	Steps:4 KeyPress:False Matched:False	1	4	false	false	Correct	false	n/a	n-backMarkers
772.718531	0.012000	dropped_samples	5901.980496	Dropped 3 samples	n/a	n/a	n/a	n/a	n/a	n/a	3	UoHDataOffsetStream
773.538755	0.004000	dropped_samples	5902.800720	Dropped 1 samples	n/a	n/a	n/a	n/a	n/a	n/a	1	UoHDataOffsetStream
773.896711	0.000000	4-back	5903.158675	Steps:4 KeyPress:False Matched:True	0	4	false	true	Wrong	false	n/a	n-backMarkers
775.311246	0.004000	dropped_samples	5904.573211	Dropped 1 samples	n/a	n/a	n/a	n/a	n/a	n/a	1	UoHDataOffsetStream
775.574928	0.004000	dropped_samples	5904.836892	Dropped 1 samples	n/a	n/a	n/a	n/a	n/a	n/a	1	UoHDataOffsetStream
775.597855	0.000000	4-back	5904.859819	Steps:4 KeyPress:False Matched:False	1	4	false	false	Correct	false	n/a	n-backMarkers
777.299780	0.000000	4-back	5906.561744	Steps:4 KeyPress:False Matched:True	0	4	false	true	Wrong	false	n/a	n-backMarkers
778.265307	0.012000	dropped_samples	5907.527271	Dropped 3 samples	n/a	n/a	n/a	n/a	n/a	n/a	3	UoHDataOffsetStream
779.000656	0.000000	4-back	5908.262620	Steps:4 KeyPress:False Matched:False	1	4	false	false	Correct	false	n/a	n-backMarkers
780.701700	0.000000	4-back	5909.963664	Steps:4 KeyPress:False Matched:False	1	4	false	false	Correct	false	n/a	n-backMarkers
781.214730	0.012000	dropped_samples	5910.476695	Dropped 3 samples	n/a	n/a	n/a	n/a	n/a	n/a	3	UoHDataOffsetStream
782.402977	0.000000	4-back	5911.664941	Steps:4 KeyPress:False Matched:False	1	4	false	false	Correct	false	n/a	n-backMarkers
783.377637	0.004000	dropped_samples	5912.639601	Dropped 1 samples	n/a	n/a	n/a	n/a	n/a	n/a	1	UoHDataOffsetStream
783.450922	0.004000	dropped_samples	5912.712886	Dropped 1 samples	n/a	n/a	n/a	n/a	n/a	n/a	1	UoHDataOffsetStream
784.103987	0.000000	4-back	5913.365951	Steps:4 KeyPress:True Matched:True	1	4	true	true	Correct	false	n/a	n-backMarkers
785.804651	0.000000	4-back	5915.066615	Steps:4 KeyPress:False Matched:False	1	4	false	false	Correct	false	n/a	n-backMarkers
787.504942	0.000000	4-back	5916.766907	Steps:4 KeyPress:False Matched:False	1	4	false	false	Correct	false	n/a	n-backMarkers
789.205684	0.000000	4-back	5918.467648	Steps:4 KeyPress:False Matched:False	1	4	false	false	Correct	false	n/a	n-backMarkers
790.906826	0.000000	4-back	5920.168791	Steps:4 KeyPress:False Matched:True	0	4	false	true	Wrong	false	n/a	n-backMarkers
792.608551	0.000000	4-back	5921.870516	Steps:4 KeyPress:False Matched:False	1	4	false	false	Correct	false	n/a	n-backMarkers
794.308845	0.000000	4-back	5923.570809	Steps:4 KeyPress:False Matched:False	1	4	false	false	Correct	false	n/a	n-backMarkers
794.798589	0.004000	dropped_samples	5924.060553	Dropped 1 samples	n/a	n/a	n/a	n/a	n/a	n/a	1	UoHDataOffsetStream
795.833753	0.004000	dropped_samples	5925.095717	Dropped 1 samples	n/a	n/a	n/a	n/a	n/a	n/a	1	UoHDataOffsetStream
796.010817	0.000000	4-back	5925.272781	Steps:4 KeyPress:True Matched:False	0	4	true	false	Wrong	false	n/a	n-backMarkers
797.710915	0.000000	4-back	5926.972880	Steps:4 KeyPress:False Matched:True	0	4	false	true	Wrong	false	n/a	n-backMarkers
798.280047	0.012000	dropped_samples	5927.542011	Dropped 3 samples	n/a	n/a	n/a	n/a	n/a	n/a	3	UoHDataOffsetStream
799.411650	0.000000	4-back	5928.673615	Steps:4 KeyPress:False Matched:True	0	4	false	true	Wrong	false	n/a	n-backMarkers
800.750787	0.004000	dropped_samples	5930.012752	Dropped 1 samples	n/a	n/a	n/a	n/a	n/a	n/a	1	UoHDataOffsetStream
801.112206	0.000000	4-back	5930.374170	Steps:4 KeyPress:False Matched:False	1	4	false	false	Correct	false	n/a	n-backMarkers
801.424586	0.004000	dropped_samples	5930.686551	Dropped 1 samples	n/a	n/a	n/a	n/a	n/a	n/a	1	UoHDataOffsetStream
801.951916	0.008000	dropped_samples	5931.213880	Dropped 2 samples	n/a	n/a	n/a	n/a	n/a	n/a	2	UoHDataOffsetStream
802.073971	0.004000	dropped_samples	5931.335936	Dropped 1 samples	n/a	n/a	n/a	n/a	n/a	n/a	1	UoHDataOffsetStream
802.454863	0.004000	dropped_samples	5931.716827	Dropped 1 samples	n/a	n/a	n/a	n/a	n/a	n/a	1	UoHDataOffsetStream
802.812709	0.000000	4-back	5932.074674	Steps:4 KeyPress:False Matched:False	1	4	false	false	Correct	false	n/a	n-backMarkers
802.987082	0.004000	dropped_samples	5932.249046	Dropped 1 samples	n/a	n/a	n/a	n/a	n/a	n/a	1	UoHDataOffsetStream
804.514152	0.000000	4-back	5933.776116	Steps:4 KeyPress:False Matched:False	1	4	false	false	Correct	false	n/a	n-backMarkers
805.145331	0.004000	dropped_samples	5934.407296	Dropped 1 samples	n/a	n/a	n/a	n/a	n/a	n/a	1	UoHDataOffsetStream
806.214958	0.000000	4-back	5935.476923	Steps:4 KeyPress:True Matched:True	1	4	true	true	Correct	false	n/a	n-backMarkers
807.916221	0.000000	4-back	5937.178186	Steps:4 KeyPress:True Matched:True	1	4	true	true	Correct	false	n/a	n-backMarkers
808.880836	0.004000	dropped_samples	5938.142801	Dropped 1 samples	n/a	n/a	n/a	n/a	n/a	n/a	1	UoHDataOffsetStream
809.408212	0.004000	dropped_samples	5938.670177	Dropped 1 samples	n/a	n/a	n/a	n/a	n/a	n/a	1	UoHDataOffsetStream
809.617198	0.000000	4-back	5938.879162	Steps:4 KeyPress:False Matched:False	1	4	false	false	Correct	false	n/a	n-backMarkers
811.317649	0.000000	4-back	5940.579614	Steps:4 KeyPress:False Matched:False	1	4	false	false	Correct	false	n/a	n-backMarkers
813.019571	0.000000	4-back	5942.281535	Steps:4 KeyPress:False Matched:False	1	4	false	false	Correct	false	n/a	n-backMarkers
813.583062	0.012000	dropped_samples	5942.845027	Dropped 3 samples	n/a	n/a	n/a	n/a	n/a	n/a	3	UoHDataOffsetStream
814.720516	0.000000	4-back	5943.982480	Steps:4 KeyPress:True Matched:True	1	4	true	true	Correct	false	n/a	n-backMarkers
816.421366	0.000000	4-back	5945.683330	Steps:4 KeyPress:False Matched:True	0	4	false	true	Wrong	false	n/a	n-backMarkers
817.328136	0.004000	dropped_samples	5946.590100	Dropped 1 samples	n/a	n/a	n/a	n/a	n/a	n/a	1	UoHDataOffsetStream
818.122592	0.000000	4-back	5947.384557	Steps:4 KeyPress:False Matched:False	1	4	false	false	Correct	false	n/a	n-backMarkers
819.823581	0.000000	4-back	5949.085546	Steps:4 KeyPress:False Matched:False	1	4	false	false	Correct	false	n/a	n-backMarkers
821.524743	0.000000	4-back	5950.786708	Steps:4 KeyPress:True Matched:False	0	4	true	false	Wrong	false	n/a	n-backMarkers
822.992238	0.004000	dropped_samples	5952.254203	Dropped 1 samples	n/a	n/a	n/a	n/a	n/a	n/a	1	UoHDataOffsetStream
823.225792	0.000000	4-back	5952.487756	Steps:4 KeyPress:True Matched:True	1	4	true	true	Correct	false	n/a	n-backMarkers
824.476611	0.004000	dropped_samples	5953.738575	Dropped 1 samples	n/a	n/a	n/a	n/a	n/a	n/a	1	UoHDataOffsetStream
824.926601	0.000000	4-back	5954.188566	Steps:4 KeyPress:False Matched:True	0	4	false	true	Wrong	false	n/a	n-backMarkers
826.627549	0.000000	4-back	5955.889514	Steps:4 KeyPress:False Matched:False	1	4	false	false	Correct	false	n/a	n-backMarkers
828.328028	0.000000	4-back	5957.589993	Steps:4 KeyPress:False Matched:False	1	4	false	false	Correct	false	n/a	n-backMarkers
830.028625	0.000000	4-back	5959.290589	Steps:4 KeyPress:False Matched:False	1	4	false	false	Correct	false	n/a	n-backMarkers
831.729594	0.000000	4-back	5960.991558	Steps:4 KeyPress:True Matched:True	1	4	true	true	Correct	false	n/a	n-backMarkers
833.431080	0.000000	4-back	5962.693044	Steps:4 KeyPress:False Matched:True	0	4	false	true	Wrong	false	n/a	n-backMarkers
835.131813	0.000000	4-back	5964.393777	Steps:4 KeyPress:True Matched:False	0	4	true	false	Wrong	false	n/a	n-backMarkers
836.832631	0.000000	4-back	5966.094595	Steps:4 KeyPress:False Matched:False	1	4	false	false	Correct	false	n/a	n-backMarkers
838.533905	0.000000	4-back	5967.795870	Steps:4 KeyPress:False Matched:False	1	4	false	false	Correct	false	n/a	n-backMarkers
840.235712	0.000000	4-back	5969.497676	Steps:4 KeyPress:False Matched:True	0	4	false	true	Wrong	false	n/a	n-backMarkers
841.936578	0.000000	4-back	5971.198542	Steps:4 KeyPress:False Matched:False	1	4	false	false	Correct	false	n/a	n-backMarkers
842.767649	0.004000	dropped_samples	5972.029613	Dropped 1 samples	n/a	n/a	n/a	n/a	n/a	n/a	1	UoHDataOffsetStream
843.637660	0.000000	4-back	5972.899624	Steps:4 KeyPress:False Matched:True	0	4	false	true	Wrong	false	n/a	n-backMarkers
844.877079	0.004000	dropped_samples	5974.139043	Dropped 1 samples	n/a	n/a	n/a	n/a	n/a	n/a	1	UoHDataOffsetStream
845.339211	0.000000	4-back	5974.601175	Steps:4 KeyPress:False Matched:False	1	4	false	false	Correct	false	n/a	n-backMarkers
847.039204	0.000000	4-back	5976.301168	Steps:4 KeyPress:False Matched:False	1	4	false	false	Correct	false	n/a	n-backMarkers
848.431726	0.004000	dropped_samples	5977.693691	Dropped 1 samples	n/a	n/a	n/a	n/a	n/a	n/a	1	UoHDataOffsetStream
848.740582	0.000000	4-back	5978.002546	Steps:4 KeyPress:False Matched:False	1	4	false	false	Correct	false	n/a	n-backMarkers
850.442539	0.000000	4-back	5979.704503	Steps:4 KeyPress:True Matched:True	1	4	true	true	Correct	false	n/a	n-backMarkers
852.143138	0.000000	4-back	5981.405102	Steps:4 KeyPress:False Matched:False	1	4	false	false	Correct	false	n/a	n-backMarkers
852.943506	0.004000	dropped_samples	5982.205471	Dropped 1 samples	n/a	n/a	n/a	n/a	n/a	n/a	1	UoHDataOffsetStream
853.843536	0.000000	4-back	5983.105501	Steps:4 KeyPress:True Matched:True	1	4	true	true	Correct	false	n/a	n-backMarkers
855.543627	0.000000	4-back	5984.805592	Steps:4 KeyPress:False Matched:False	1	4	false	false	Correct	false	n/a	n-backMarkers
857.245635	0.000000	4-back	5986.507599	Steps:4 KeyPress:False Matched:False	1	4	false	false	Correct	false	n/a	n-backMarkers
858.080191	0.004000	dropped_samples	5987.342155	Dropped 1 samples	n/a	n/a	n/a	n/a	n/a	n/a	1	UoHDataOffsetStream
858.946660	0.000000	4-back	5988.208624	Steps:4 KeyPress:True Matched:False	0	4	true	false	Wrong	false	n/a	n-backMarkers
860.647560	0.000000	4-back	5989.909524	Steps:4 KeyPress:False Matched:True	0	4	false	true	Wrong	false	n/a	n-backMarkers
860.765779	0.004000	dropped_samples	5990.027744	Dropped 1 samples	n/a	n/a	n/a	n/a	n/a	n/a	1	UoHDataOffsetStream
861.293103	0.004000	dropped_samples	5990.555067	Dropped 1 samples	n/a	n/a	n/a	n/a	n/a	n/a	1	UoHDataOffsetStream
862.348677	0.000000	4-back	5991.610641	Steps:4 KeyPress:True Matched:False	0	4	true	false	Wrong	false	n/a	n-backMarkers
864.049647	0.000000	4-back	5993.311611	Steps:4 KeyPress:False Matched:False	1	4	false	false	Correct	false	n/a	n-backMarkers
865.750461	0.000000	4-back	5995.012425	Steps:4 KeyPress:False Matched:False	1	4	false	false	Correct	false	n/a	n-backMarkers
867.201354	0.004000	dropped_samples	5996.463318	Dropped 1 samples	n/a	n/a	n/a	n/a	n/a	n/a	1	UoHDataOffsetStream
867.450723	0.000000	4-back	5996.712687	Steps:4 KeyPress:False Matched:False	1	4	false	false	Correct	false	n/a	n-backMarkers
868.880995	0.004000	dropped_samples	5998.142959	Dropped 1 samples	n/a	n/a	n/a	n/a	n/a	n/a	1	UoHDataOffsetStream
869.151532	0.000000	4-back	5998.413496	Steps:4 KeyPress:False Matched:True	0	4	false	true	Wrong	false	n/a	n-backMarkers
869.501162	0.004000	dropped_samples	5998.763126	Dropped 1 samples	n/a	n/a	n/a	n/a	n/a	n/a	1	UoHDataOffsetStream
870.852543	0.000000	4-back	6000.114508	Steps:4 KeyPress:False Matched:False	1	4	false	false	Correct	false	n/a	n-backMarkers
872.553568	0.000000	4-back	6001.815532	Steps:4 KeyPress:False Matched:False	1	4	false	false	Correct	false	n/a	n-backMarkers
874.254556	0.000000	4-back	6003.516520	Steps:4 KeyPress:False Matched:False	1	4	false	false	Correct	false	n/a	n-backMarkers
875.955542	0.000000	4-back	6005.217507	Steps:4 KeyPress:True Matched:True	1	4	true	true	Correct	false	n/a	n-backMarkers
877.657070	0.000000	4-back	6006.919035	Steps:4 KeyPress:False Matched:True	0	4	false	true	Wrong	false	n/a	n-backMarkers
878.334190	0.004000	dropped_samples	6007.596154	Dropped 1 samples	n/a	n/a	n/a	n/a	n/a	n/a	1	UoHDataOffsetStream
879.358675	0.000000	4-back	6008.620640	Steps:4 KeyPress:False Matched:False	1	4	false	false	Correct	false	n/a	n-backMarkers
881.060147	0.000000	4-back	6010.322112	Steps:4 KeyPress:False Matched:False	1	4	false	false	Correct	false	n/a	n-backMarkers
881.263877	0.004000	dropped_samples	6010.525841	Dropped 1 samples	n/a	n/a	n/a	n/a	n/a	n/a	1	UoHDataOffsetStream
882.761390	0.000000	4-back	6012.023354	Steps:4 KeyPress:False Matched:False	1	4	false	false	Correct	false	n/a	n-backMarkers
884.462696	0.000000	4-back	6013.724661	Steps:4 KeyPress:True Matched:True	1	4	true	true	Correct	false	n/a	n-backMarkers
885.057821	0.012000	dropped_samples	6014.319785	Dropped 3 samples	n/a	n/a	n/a	n/a	n/a	n/a	3	UoHDataOffsetStream
886.163048	0.000000	4-back	6015.425012	Steps:4 KeyPress:False Matched:False	1	4	false	false	Correct	false	n/a	n-backMarkers
887.863104	0.000000	4-back	6017.125069	Steps:4 KeyPress:False Matched:True	0	4	false	true	Wrong	false	n/a	n-backMarkers
889.086176	0.004000	dropped_samples	6018.348140	Dropped 1 samples	n/a	n/a	n/a	n/a	n/a	n/a	1	UoHDataOffsetStream
889.563508	0.000000	4-back	6018.825472	Steps:4 KeyPress:False Matched:False	1	4	false	false	Correct	false	n/a	n-backMarkers
891.265484	0.000000	4-back	6020.527448	Steps:4 KeyPress:False Matched:False	1	4	false	false	Correct	false	n/a	n-backMarkers
892.966390	0.000000	4-back	6022.228355	Steps:4 KeyPress:False Matched:False	1	4	false	false	Correct	false	n/a	n-backMarkers
894.666899	0.000000	4-back	6023.928863	Steps:4 KeyPress:False Matched:True	0	4	false	true	Wrong	false	n/a	n-backMarkers
896.366877	0.000000	4-back	6025.628841	Steps:4 KeyPress:False Matched:True	0	4	false	true	Wrong	false	n/a	n-backMarkers
898.067560	0.000000	4-back	6027.329524	Steps:4 KeyPress:False Matched:False	1	4	false	false	Correct	false	n/a	n-backMarkers
899.767882	0.000000	4-back	6029.029847	Steps:4 KeyPress:False Matched:False	1	4	false	false	Correct	false	n/a	n-backMarkers
900.321646	0.004000	dropped_samples	6029.583611	Dropped 1 samples	n/a	n/a	n/a	n/a	n/a	n/a	1	UoHDataOffsetStream
901.468508	0.000000	4-back	6030.730472	Steps:4 KeyPress:False Matched:False	1	4	false	false	Correct	false	n/a	n-backMarkers
902.528564	0.012000	dropped_samples	6031.790529	Dropped 3 samples	n/a	n/a	n/a	n/a	n/a	n/a	3	UoHDataOffsetStream
903.169348	0.000000	4-back	6032.431313	Steps:4 KeyPress:False Matched:True	0	4	false	true	Wrong	false	n/a	n-backMarkers
904.870396	0.000000	4-back	6034.132361	Steps:4 KeyPress:False Matched:True	0	4	false	true	Wrong	false	n/a	n-backMarkers
905.839101	0.012000	dropped_samples	6035.101065	Dropped 3 samples	n/a	n/a	n/a	n/a	n/a	n/a	3	UoHDataOffsetStream
906.571518	0.000000	4-back	6035.833482	Steps:4 KeyPress:False Matched:False	1	4	false	false	Correct	false	n/a	n-backMarkers
908.272471	0.000000	4-back	6037.534436	Steps:4 KeyPress:False Matched:False	1	4	false	false	Correct	false	n/a	n-backMarkers
909.972546	0.000000	4-back	6039.234511	Steps:4 KeyPress:False Matched:False	1	4	false	false	Correct	false	n/a	n-backMarkers
911.674667	0.000000	4-back	6040.936631	Steps:4 KeyPress:True Matched:True	1	4	true	true	Correct	false	n/a	n-backMarkers
913.375444	0.000000	4-back	6042.637409	Steps:4 KeyPress:False Matched:False	1	4	false	false	Correct	false	n/a	n-backMarkers
915.076076	0.000000	4-back	6044.338041	Steps:4 KeyPress:True Matched:True	1	4	true	true	Correct	false	n/a	n-backMarkers
916.210240	0.004000	dropped_samples	6045.472204	Dropped 1 samples	n/a	n/a	n/a	n/a	n/a	n/a	1	UoHDataOffsetStream
916.776529	0.000000	4-back	6046.038494	Steps:4 KeyPress:False Matched:False	1	4	false	false	Correct	false	n/a	n-backMarkers
918.477847	0.000000	4-back	6047.739812	Steps:4 KeyPress:False Matched:False	1	4	false	false	Correct	false	n/a	n-backMarkers
920.178922	0.000000	4-back	6049.440887	Steps:4 KeyPress:False Matched:False	1	4	false	false	Correct	false	n/a	n-backMarkers
921.880086	0.000000	4-back	6051.142051	Steps:4 KeyPress:True Matched:True	1	4	true	true	Correct	false	n/a	n-backMarkers
923.581648	0.000000	4-back	6052.843612	Steps:4 KeyPress:True Matched:False	0	4	true	false	Wrong	false	n/a	n-backMarkers
925.283442	0.000000	4-back	6054.545407	Steps:4 KeyPress:False Matched:False	1	4	false	false	Correct	false	n/a	n-backMarkers
926.984446	0.000000	4-back	6056.246410	Steps:4 KeyPress:False Matched:True	0	4	false	true	Wrong	false	n/a	n-backMarkers
928.685552	0.000000	4-back	6057.947516	Steps:4 KeyPress:False Matched:False	1	4	false	false	Correct	false	n/a	n-backMarkers
930.386723	0.000000	4-back	6059.648687	Steps:4 KeyPress:False Matched:False	1	4	false	false	Correct	false	n/a	n-backMarkers
931.762038	0.004000	dropped_samples	6061.024002	Dropped 1 samples	n/a	n/a	n/a	n/a	n/a	n/a	1	UoHDataOffsetStream
932.086481	0.000000	4-back	6061.348445	Steps:4 KeyPress:False Matched:False	1	4	false	false	Correct	false	n/a	n-backMarkers
933.787464	0.000000	4-back	6063.049429	Steps:4 KeyPress:True Matched:True	1	4	true	true	Correct	false	n/a	n-backMarkers
935.489537	0.000000	4-back	6064.751501	Steps:4 KeyPress:False Matched:False	1	4	false	false	Correct	false	n/a	n-backMarkers
936.366557	0.012000	dropped_samples	6065.628522	Dropped 3 samples	n/a	n/a	n/a	n/a	n/a	n/a	3	UoHDataOffsetStream
937.190733	0.000000	4-back	6066.452697	Steps:4 KeyPress:False Matched:True	0	4	false	true	Wrong	false	n/a	n-backMarkers
937.206299	0.004000	dropped_samples	6066.468264	Dropped 1 samples	n/a	n/a	n/a	n/a	n/a	n/a	1	UoHDataOffsetStream
937.230686	0.004000	dropped_samples	6066.492651	Dropped 1 samples	n/a	n/a	n/a	n/a	n/a	n/a	1	UoHDataOffsetStream
938.891559	0.000000	4-back	6068.153523	Steps:4 KeyPress:False Matched:False	1	4	false	false	Correct	false	n/a	n-backMarkers
940.592321	0.000000	4-back	6069.854285	Steps:4 KeyPress:False Matched:False	1	4	false	false	Correct	false	n/a	n-backMarkers
941.292691	0.000000	finished_n_back	6070.554655	Finished n-back	n/a	n/a	n/a	n/a	n/a	false	n/a	n-backMarkers
