onset	duration	trial_type	timestamp_lsl	marker	response_accuracy	difficulty_range	nback_n	keypress	matched	outcome	istutorial	dropped_samples	marker_stream
15.024613	0.000000	dropped_samples	4127.974296	Dropped 1 samples	n/a	n/a	n/a	n/a	n/a	n/a	n/a	1	UoHDataOffsetStream
15.527544	0.000000	dropped_samples	4128.477227	Dropped 1 samples	n/a	n/a	n/a	n/a	n/a	n/a	n/a	1	UoHDataOffsetStream
16.557822	0.000000	dropped_samples	4129.507504	Dropped 3 samples	n/a	n/a	n/a	n/a	n/a	n/a	n/a	3	UoHDataOffsetStream
21.596852	0.000000	dropped_samples	4134.546534	Dropped 3 samples	n/a	n/a	n/a	n/a	n/a	n/a	n/a	3	UoHDataOffsetStream
23.326817	0.000000	dropped_samples	4136.276499	Dropped 1 samples	n/a	n/a	n/a	n/a	n/a	n/a	n/a	1	UoHDataOffsetStream
23.686700	0.000000	dropped_samples	4136.636382	Dropped 1 samples	n/a	n/a	n/a	n/a	n/a	n/a	n/a	1	UoHDataOffsetStream
26.084210	0.000000	dropped_samples	4139.033892	Dropped 1 samples	n/a	n/a	n/a	n/a	n/a	n/a	n/a	1	UoHDataOffsetStream
28.271844	0.000000	dropped_samples	4141.221526	Dropped 1 samples	n/a	n/a	n/a	n/a	n/a	n/a	n/a	1	UoHDataOffsetStream
28.701347	0.000000	dropped_samples	4141.651029	Dropped 1 samples	n/a	n/a	n/a	n/a	n/a	n/a	n/a	1	UoHDataOffsetStream
29.760932	0.000000	dropped_samples	4142.710614	Dropped 1 samples	n/a	n/a	n/a	n/a	n/a	n/a	n/a	1	UoHDataOffsetStream
30.312709	0.000000	dropped_samples	4143.262391	Dropped 1 samples	n/a	n/a	n/a	n/a	n/a	n/a	n/a	1	UoHDataOffsetStream
31.030477	0.000000	dropped_samples	4143.980159	Dropped 1 samples	n/a	n/a	n/a	n/a	n/a	n/a	n/a	1	UoHDataOffsetStream
33.935799	0.000000	dropped_samples	4146.885481	Dropped 1 samples	n/a	n/a	n/a	n/a	n/a	n/a	n/a	1	UoHDataOffsetStream
40.916437	0.000000	started_tutorial_n-back	4153.866119	Started tutorial n-back	n/a	n/a	n/a	n/a	n/a	n/a	n/a	n/a	n-backMarkers
50.781459	0.000000	dropped_samples	4163.731141	Dropped 1 samples	n/a	n/a	n/a	n/a	n/a	n/a	n/a	1	UoHDataOffsetStream
64.126237	0.000000	dropped_samples	4177.075920	Dropped 2 samples	n/a	n/a	n/a	n/a	n/a	n/a	n/a	2	UoHDataOffsetStream
69.238541	0.000000	dropped_samples	4182.188223	Dropped 3 samples	n/a	n/a	n/a	n/a	n/a	n/a	n/a	3	UoHDataOffsetStream
70.366483	0.000000	dropped_samples	4183.316165	Dropped 3 samples	n/a	n/a	n/a	n/a	n/a	n/a	n/a	3	UoHDataOffsetStream
71.470031	0.000000	dropped_samples	4184.419713	Dropped 2 samples	n/a	n/a	n/a	n/a	n/a	n/a	n/a	2	UoHDataOffsetStream
72.793225	0.000000	dropped_samples	4185.742907	Dropped 1 samples	n/a	n/a	n/a	n/a	n/a	n/a	n/a	1	UoHDataOffsetStream
72.995052	0.000000	dropped_samples	4185.944734	Dropped 1 samples	n/a	n/a	n/a	n/a	n/a	n/a	n/a	1	UoHDataOffsetStream
73.032530	0.000000	dropped_samples	4185.982212	Dropped 3 samples	n/a	n/a	n/a	n/a	n/a	n/a	n/a	3	UoHDataOffsetStream
73.437759	0.000000	dropped_samples	4186.387441	Dropped 3 samples	n/a	n/a	n/a	n/a	n/a	n/a	n/a	3	UoHDataOffsetStream
76.201440	0.000000	dropped_samples	4189.151122	Dropped 2 samples	n/a	n/a	n/a	n/a	n/a	n/a	n/a	2	UoHDataOffsetStream
76.391910	0.000000	dropped_samples	4189.341592	Dropped 1 samples	n/a	n/a	n/a	n/a	n/a	n/a	n/a	1	UoHDataOffsetStream
78.022722	0.000000	dropped_samples	4190.972404	Dropped 1 samples	n/a	n/a	n/a	n/a	n/a	n/a	n/a	1	UoHDataOffsetStream
78.071541	0.000000	dropped_samples	4191.021223	Dropped 1 samples	n/a	n/a	n/a	n/a	n/a	n/a	n/a	1	UoHDataOffsetStream
79.751371	0.000000	dropped_samples	4192.701053	Dropped 1 samples	n/a	n/a	n/a	n/a	n/a	n/a	n/a	1	UoHDataOffsetStream
81.094036	0.000000	dropped_samples	4194.043719	Dropped 2 samples	n/a	n/a	n/a	n/a	n/a	n/a	n/a	2	UoHDataOffsetStream
84.717056	0.000000	dropped_samples	4197.666739	Dropped 1 samples	n/a	n/a	n/a	n/a	n/a	n/a	n/a	1	UoHDataOffsetStream
88.799111	0.000000	dropped_samples	4201.748793	Dropped 1 samples	n/a	n/a	n/a	n/a	n/a	n/a	n/a	1	UoHDataOffsetStream
89.736636	0.000000	dropped_samples	4202.686318	Dropped 2 samples	n/a	n/a	n/a	n/a	n/a	n/a	n/a	2	UoHDataOffsetStream
94.341098	0.000000	dropped_samples	4207.290780	Dropped 3 samples	n/a	n/a	n/a	n/a	n/a	n/a	n/a	3	UoHDataOffsetStream
94.560826	0.000000	dropped_samples	4207.510508	Dropped 2 samples	n/a	n/a	n/a	n/a	n/a	n/a	n/a	2	UoHDataOffsetStream
98.268540	0.000000	dropped_samples	4211.218222	Dropped 1 samples	n/a	n/a	n/a	n/a	n/a	n/a	n/a	1	UoHDataOffsetStream
104.375293	0.000000	dropped_samples	4217.324975	Dropped 1 samples	n/a	n/a	n/a	n/a	n/a	n/a	n/a	1	UoHDataOffsetStream
106.777676	0.000000	dropped_samples	4219.727358	Dropped 1 samples	n/a	n/a	n/a	n/a	n/a	n/a	n/a	1	UoHDataOffsetStream
107.915252	1.701006	nback_1	4220.864934	Steps:1 KeyPress:False Matched:False	1	n/a	1	False	False	n/a	n/a	n/a	n-backMarkers
109.616078	1.701006	nback_1	4222.565760	Steps:1 KeyPress:False Matched:False	1	n/a	1	False	False	n/a	n/a	n/a	n-backMarkers
111.317130	1.701006	nback_1	4224.266812	Steps:1 KeyPress:False Matched:False	1	n/a	1	False	False	n/a	n/a	n/a	n-backMarkers
113.017506	1.701006	nback_1	4225.967188	Steps:1 KeyPress:True Matched:False	0	n/a	1	True	False	n/a	n/a	n/a	n-backMarkers
114.719079	1.701006	nback_1	4227.668761	Steps:1 KeyPress:False Matched:False	1	n/a	1	False	False	n/a	n/a	n/a	n-backMarkers
116.419181	1.701006	nback_1	4229.368863	Steps:1 KeyPress:True Matched:False	0	n/a	1	True	False	n/a	n/a	n/a	n-backMarkers
118.119977	1.701006	nback_1	4231.069659	Steps:1 KeyPress:False Matched:True	0	n/a	1	False	True	n/a	n/a	n/a	n-backMarkers
119.820366	1.701006	nback_1	4232.770048	Steps:1 KeyPress:False Matched:True	0	n/a	1	False	True	n/a	n/a	n/a	n-backMarkers
121.522050	1.701006	nback_1	4234.471732	Steps:1 KeyPress:False Matched:False	1	n/a	1	False	False	n/a	n/a	n/a	n-backMarkers
122.280591	0.000000	dropped_samples	4235.230273	Dropped 1 samples	n/a	n/a	n/a	n/a	n/a	n/a	n/a	1	UoHDataOffsetStream
122.685907	0.000000	dropped_samples	4235.635589	Dropped 1 samples	n/a	n/a	n/a	n/a	n/a	n/a	n/a	1	UoHDataOffsetStream
123.222147	1.701006	nback_1	4236.171829	Steps:1 KeyPress:False Matched:False	1	n/a	1	False	False	n/a	n/a	n/a	n-backMarkers
123.745448	0.000000	dropped_samples	4236.695130	Dropped 1 samples	n/a	n/a	n/a	n/a	n/a	n/a	n/a	1	UoHDataOffsetStream
124.923313	1.701006	nback_1	4237.872995	Steps:1 KeyPress:False Matched:True	0	n/a	1	False	True	n/a	n/a	n/a	n-backMarkers
126.625000	1.701006	nback_1	4239.574682	Steps:1 KeyPress:True Matched:False	0	n/a	1	True	False	n/a	n/a	n/a	n-backMarkers
127.393086	0.000000	dropped_samples	4240.342768	Dropped 3 samples	n/a	n/a	n/a	n/a	n/a	n/a	n/a	3	UoHDataOffsetStream
128.326393	1.701006	nback_1	4241.276075	Steps:1 KeyPress:False Matched:False	1	n/a	1	False	False	n/a	n/a	n/a	n-backMarkers
130.026372	1.701006	nback_1	4242.976054	Steps:1 KeyPress:True Matched:False	0	n/a	1	True	False	n/a	n/a	n/a	n-backMarkers
131.430354	0.000000	dropped_samples	4244.380036	Dropped 3 samples	n/a	n/a	n/a	n/a	n/a	n/a	n/a	3	UoHDataOffsetStream
131.470082	0.000000	dropped_samples	4244.419764	Dropped 2 samples	n/a	n/a	n/a	n/a	n/a	n/a	n/a	2	UoHDataOffsetStream
131.726939	1.701006	nback_1	4244.676621	Steps:1 KeyPress:False Matched:False	1	n/a	1	False	False	n/a	n/a	n/a	n-backMarkers
132.384444	0.000000	dropped_samples	4245.334126	Dropped 2 samples	n/a	n/a	n/a	n/a	n/a	n/a	n/a	2	UoHDataOffsetStream
133.427082	1.701006	nback_1	4246.376764	Steps:1 KeyPress:True Matched:False	0	n/a	1	True	False	n/a	n/a	n/a	n-backMarkers
135.129727	1.701006	nback_1	4248.079409	Steps:1 KeyPress:False Matched:True	0	n/a	1	False	True	n/a	n/a	n/a	n-backMarkers
136.830118	1.701006	nback_1	4249.779800	Steps:1 KeyPress:False Matched:False	1	n/a	1	False	False	n/a	n/a	n/a	n-backMarkers
138.531962	1.701006	nback_1	4251.481644	Steps:1 KeyPress:True Matched:False	0	n/a	1	True	False	n/a	n/a	n/a	n-backMarkers
140.232966	1.701006	nback_1	4253.182648	Steps:1 KeyPress:False Matched:True	0	n/a	1	False	True	n/a	n/a	n/a	n-backMarkers
141.934028	1.701006	nback_1	4254.883710	Steps:1 KeyPress:False Matched:False	1	n/a	1	False	False	n/a	n/a	n/a	n-backMarkers
143.711308	0.000000	dropped_samples	4256.660990	Dropped 4 samples	n/a	n/a	n/a	n/a	n/a	n/a	n/a	4	UoHDataOffsetStream
144.668188	0.000000	dropped_samples	4257.617870	Dropped 2 samples	n/a	n/a	n/a	n/a	n/a	n/a	n/a	2	UoHDataOffsetStream
144.722041	0.000000	dropped_samples	4257.671723	Dropped 9 samples	n/a	n/a	n/a	n/a	n/a	n/a	n/a	9	UoHDataOffsetStream
150.625985	1.701006	nback_2	4263.575667	Steps:2 KeyPress:False Matched:False	1	n/a	2	False	False	n/a	n/a	n/a	n-backMarkers
150.829553	0.000000	dropped_samples	4263.779235	Dropped 2 samples	n/a	n/a	n/a	n/a	n/a	n/a	n/a	2	UoHDataOffsetStream
150.864682	0.000000	dropped_samples	4263.814364	Dropped 2 samples	n/a	n/a	n/a	n/a	n/a	n/a	n/a	2	UoHDataOffsetStream
152.326519	1.701006	nback_2	4265.276201	Steps:2 KeyPress:False Matched:False	1	n/a	2	False	False	n/a	n/a	n/a	n-backMarkers
152.881270	0.000000	dropped_samples	4265.830952	Dropped 1 samples	n/a	n/a	n/a	n/a	n/a	n/a	n/a	1	UoHDataOffsetStream
154.027948	1.701006	nback_2	4266.977630	Steps:2 KeyPress:False Matched:False	1	n/a	2	False	False	n/a	n/a	n/a	n-backMarkers
155.728105	1.701006	nback_2	4268.677787	Steps:2 KeyPress:False Matched:False	1	n/a	2	False	False	n/a	n/a	n/a	n-backMarkers
157.031686	0.000000	dropped_samples	4269.981368	Dropped 1 samples	n/a	n/a	n/a	n/a	n/a	n/a	n/a	1	UoHDataOffsetStream
157.429885	1.701006	nback_2	4270.379567	Steps:2 KeyPress:True Matched:False	0	n/a	2	True	False	n/a	n/a	n/a	n-backMarkers
159.130981	1.701006	nback_2	4272.080663	Steps:2 KeyPress:False Matched:True	0	n/a	2	False	True	n/a	n/a	n/a	n-backMarkers
160.831712	1.701006	nback_2	4273.781394	Steps:2 KeyPress:True Matched:False	0	n/a	2	True	False	n/a	n/a	n/a	n-backMarkers
162.532996	1.701006	nback_2	4275.482678	Steps:2 KeyPress:False Matched:True	0	n/a	2	False	True	n/a	n/a	n/a	n-backMarkers
164.233263	1.701006	nback_2	4277.182945	Steps:2 KeyPress:False Matched:False	1	n/a	2	False	False	n/a	n/a	n/a	n-backMarkers
165.365546	0.000000	dropped_samples	4278.315228	Dropped 1 samples	n/a	n/a	n/a	n/a	n/a	n/a	n/a	1	UoHDataOffsetStream
165.548911	0.000000	dropped_samples	4278.498593	Dropped 2 samples	n/a	n/a	n/a	n/a	n/a	n/a	n/a	2	UoHDataOffsetStream
165.934836	1.701006	nback_2	4278.884518	Steps:2 KeyPress:False Matched:True	0	n/a	2	False	True	n/a	n/a	n/a	n-backMarkers
166.542810	0.000000	dropped_samples	4279.492492	Dropped 1 samples	n/a	n/a	n/a	n/a	n/a	n/a	n/a	1	UoHDataOffsetStream
166.704538	0.000000	dropped_samples	4279.654220	Dropped 2 samples	n/a	n/a	n/a	n/a	n/a	n/a	n/a	2	UoHDataOffsetStream
167.636053	1.701006	nback_2	4280.585735	Steps:2 KeyPress:False Matched:False	1	n/a	2	False	False	n/a	n/a	n/a	n-backMarkers
167.734759	0.000000	dropped_samples	4280.684441	Dropped 6 samples	n/a	n/a	n/a	n/a	n/a	n/a	n/a	6	UoHDataOffsetStream
168.984822	0.000000	dropped_samples	4281.934504	Dropped 3 samples	n/a	n/a	n/a	n/a	n/a	n/a	n/a	3	UoHDataOffsetStream
169.337129	1.701006	nback_2	4282.286811	Steps:2 KeyPress:False Matched:False	1	n/a	2	False	False	n/a	n/a	n/a	n-backMarkers
170.566781	0.000000	dropped_samples	4283.516463	Dropped 1 samples	n/a	n/a	n/a	n/a	n/a	n/a	n/a	1	UoHDataOffsetStream
171.037971	1.701006	nback_2	4283.987653	Steps:2 KeyPress:False Matched:False	1	n/a	2	False	False	n/a	n/a	n/a	n-backMarkers
171.339663	0.000000	dropped_samples	4284.289346	Dropped 3 samples	n/a	n/a	n/a	n/a	n/a	n/a	n/a	3	UoHDataOffsetStream
172.738373	1.701006	nback_2	4285.688055	Steps:2 KeyPress:True Matched:False	0	n/a	2	True	False	n/a	n/a	n/a	n-backMarkers
174.439450	1.701006	nback_2	4287.389132	Steps:2 KeyPress:False Matched:False	1	n/a	2	False	False	n/a	n/a	n/a	n-backMarkers
175.703539	0.000000	dropped_samples	4288.653221	Dropped 1 samples	n/a	n/a	n/a	n/a	n/a	n/a	n/a	1	UoHDataOffsetStream
176.064946	0.000000	dropped_samples	4289.014628	Dropped 1 samples	n/a	n/a	n/a	n/a	n/a	n/a	n/a	1	UoHDataOffsetStream
176.140677	1.701006	nback_2	4289.090359	Steps:2 KeyPress:False Matched:False	1	n/a	2	False	False	n/a	n/a	n/a	n-backMarkers
177.841620	1.701006	nback_2	4290.791302	Steps:2 KeyPress:True Matched:False	0	n/a	2	True	False	n/a	n/a	n/a	n-backMarkers
178.369552	0.000000	dropped_samples	4291.319234	Dropped 1 samples	n/a	n/a	n/a	n/a	n/a	n/a	n/a	1	UoHDataOffsetStream
179.541929	1.701006	nback_2	4292.491611	Steps:2 KeyPress:False Matched:False	1	n/a	2	False	False	n/a	n/a	n/a	n-backMarkers
179.762063	0.000000	dropped_samples	4292.711745	Dropped 1 samples	n/a	n/a	n/a	n/a	n/a	n/a	n/a	1	UoHDataOffsetStream
180.202388	0.000000	dropped_samples	4293.152070	Dropped 2 samples	n/a	n/a	n/a	n/a	n/a	n/a	n/a	2	UoHDataOffsetStream
180.552164	0.000000	dropped_samples	4293.501846	Dropped 13 samples	n/a	n/a	n/a	n/a	n/a	n/a	n/a	13	UoHDataOffsetStream
181.242868	1.701006	nback_2	4294.192550	Steps:2 KeyPress:False Matched:False	1	n/a	2	False	False	n/a	n/a	n/a	n-backMarkers
182.944501	1.701006	nback_2	4295.894183	Steps:2 KeyPress:True Matched:False	0	n/a	2	True	False	n/a	n/a	n/a	n-backMarkers
187.153762	0.000000	dropped_samples	4300.103444	Dropped 1 samples	n/a	n/a	n/a	n/a	n/a	n/a	n/a	1	UoHDataOffsetStream
187.705511	0.000000	dropped_samples	4300.655193	Dropped 1 samples	n/a	n/a	n/a	n/a	n/a	n/a	n/a	1	UoHDataOffsetStream
191.641379	1.701006	nback_3	4304.591061	Steps:3 KeyPress:False Matched:False	1	n/a	3	False	False	n/a	n/a	n/a	n-backMarkers
193.342150	1.701006	nback_3	4306.291832	Steps:3 KeyPress:False Matched:False	1	n/a	3	False	False	n/a	n/a	n/a	n-backMarkers
193.486766	0.000000	dropped_samples	4306.436448	Dropped 1 samples	n/a	n/a	n/a	n/a	n/a	n/a	n/a	1	UoHDataOffsetStream
195.043012	1.701006	nback_3	4307.992694	Steps:3 KeyPress:False Matched:False	1	n/a	3	False	False	n/a	n/a	n/a	n-backMarkers
196.631290	0.000000	dropped_samples	4309.580972	Dropped 1 samples	n/a	n/a	n/a	n/a	n/a	n/a	n/a	1	UoHDataOffsetStream
196.743876	1.701006	nback_3	4309.693558	Steps:3 KeyPress:False Matched:False	1	n/a	3	False	False	n/a	n/a	n/a	n-backMarkers
197.832513	0.000000	dropped_samples	4310.782195	Dropped 1 samples	n/a	n/a	n/a	n/a	n/a	n/a	n/a	1	UoHDataOffsetStream
198.445930	1.701006	nback_3	4311.395612	Steps:3 KeyPress:False Matched:False	1	n/a	3	False	False	n/a	n/a	n/a	n-backMarkers
199.248494	0.000000	dropped_samples	4312.198176	Dropped 1 samples	n/a	n/a	n/a	n/a	n/a	n/a	n/a	1	UoHDataOffsetStream
200.146520	1.701006	nback_3	4313.096202	Steps:3 KeyPress:False Matched:False	1	n/a	3	False	False	n/a	n/a	n/a	n-backMarkers
201.847905	1.701006	nback_3	4314.797587	Steps:3 KeyPress:False Matched:False	1	n/a	3	False	False	n/a	n/a	n/a	n-backMarkers
203.548857	1.701006	nback_3	4316.498539	Steps:3 KeyPress:True Matched:False	0	n/a	3	True	False	n/a	n/a	n/a	n-backMarkers
205.250225	1.701006	nback_3	4318.199907	Steps:3 KeyPress:False Matched:False	1	n/a	3	False	False	n/a	n/a	n/a	n-backMarkers
206.641042	0.000000	dropped_samples	4319.590724	Dropped 3 samples	n/a	n/a	n/a	n/a	n/a	n/a	n/a	3	UoHDataOffsetStream
206.949927	1.701006	nback_3	4319.899609	Steps:3 KeyPress:False Matched:False	1	n/a	3	False	False	n/a	n/a	n/a	n-backMarkers
208.651233	1.701006	nback_3	4321.600915	Steps:3 KeyPress:False Matched:False	1	n/a	3	False	False	n/a	n/a	n/a	n-backMarkers
209.376118	0.000000	dropped_samples	4322.325800	Dropped 1 samples	n/a	n/a	n/a	n/a	n/a	n/a	n/a	1	UoHDataOffsetStream
210.351987	1.701006	nback_3	4323.301669	Steps:3 KeyPress:True Matched:False	0	n/a	3	True	False	n/a	n/a	n/a	n-backMarkers
212.053802	1.701006	nback_3	4325.003484	Steps:3 KeyPress:False Matched:True	0	n/a	3	False	True	n/a	n/a	n/a	n-backMarkers
213.754048	1.701006	nback_3	4326.703730	Steps:3 KeyPress:False Matched:False	1	n/a	3	False	False	n/a	n/a	n/a	n-backMarkers
215.454982	1.701006	nback_3	4328.404664	Steps:3 KeyPress:False Matched:False	1	n/a	3	False	False	n/a	n/a	n/a	n-backMarkers
217.156510	1.701006	nback_3	4330.106192	Steps:3 KeyPress:False Matched:False	1	n/a	3	False	False	n/a	n/a	n/a	n-backMarkers
218.760242	0.000000	dropped_samples	4331.709924	Dropped 3 samples	n/a	n/a	n/a	n/a	n/a	n/a	n/a	3	UoHDataOffsetStream
218.856435	1.701006	nback_3	4331.806117	Steps:3 KeyPress:False Matched:False	1	n/a	3	False	False	n/a	n/a	n/a	n-backMarkers
220.557683	1.701006	nback_3	4333.507365	Steps:3 KeyPress:False Matched:False	1	n/a	3	False	False	n/a	n/a	n/a	n-backMarkers
222.257808	1.701006	nback_3	4335.207490	Steps:3 KeyPress:False Matched:False	1	n/a	3	False	False	n/a	n/a	n/a	n-backMarkers
223.198724	0.000000	dropped_samples	4336.148406	Dropped 1 samples	n/a	n/a	n/a	n/a	n/a	n/a	n/a	1	UoHDataOffsetStream
223.959887	1.701006	nback_3	4336.909569	Steps:3 KeyPress:False Matched:False	1	n/a	3	False	False	n/a	n/a	n/a	n-backMarkers
226.895023	0.000000	dropped_samples	4339.844705	Dropped 1 samples	n/a	n/a	n/a	n/a	n/a	n/a	n/a	1	UoHDataOffsetStream
230.522938	0.000000	dropped_samples	4343.472620	Dropped 2 samples	n/a	n/a	n/a	n/a	n/a	n/a	n/a	2	UoHDataOffsetStream
232.661509	1.701006	nback_4	4345.611191	Steps:4 KeyPress:False Matched:True	0	n/a	4	False	True	n/a	n/a	n/a	n-backMarkers
233.232886	0.000000	dropped_samples	4346.182568	Dropped 1 samples	n/a	n/a	n/a	n/a	n/a	n/a	n/a	1	UoHDataOffsetStream
234.361728	1.701006	nback_4	4347.311410	Steps:4 KeyPress:False Matched:False	1	n/a	4	False	False	n/a	n/a	n/a	n-backMarkers
236.061979	1.701006	nback_4	4349.011661	Steps:4 KeyPress:False Matched:False	1	n/a	4	False	False	n/a	n/a	n/a	n-backMarkers
237.763312	1.701006	nback_4	4350.712994	Steps:4 KeyPress:False Matched:False	1	n/a	4	False	False	n/a	n/a	n/a	n-backMarkers
239.258250	0.000000	dropped_samples	4352.207932	Dropped 3 samples	n/a	n/a	n/a	n/a	n/a	n/a	n/a	3	UoHDataOffsetStream
239.464027	1.701006	nback_4	4352.413709	Steps:4 KeyPress:True Matched:True	1	n/a	4	True	True	n/a	n/a	n/a	n-backMarkers
241.164816	1.701006	nback_4	4354.114498	Steps:4 KeyPress:False Matched:False	1	n/a	4	False	False	n/a	n/a	n/a	n-backMarkers
242.865720	1.701006	nback_4	4355.815402	Steps:4 KeyPress:False Matched:True	0	n/a	4	False	True	n/a	n/a	n/a	n-backMarkers
244.567719	1.701006	nback_4	4357.517401	Steps:4 KeyPress:True Matched:False	0	n/a	4	True	False	n/a	n/a	n/a	n-backMarkers
246.267964	1.701006	nback_4	4359.217646	Steps:4 KeyPress:False Matched:False	1	n/a	4	False	False	n/a	n/a	n/a	n-backMarkers
246.387202	0.000000	dropped_samples	4359.336884	Dropped 1 samples	n/a	n/a	n/a	n/a	n/a	n/a	n/a	1	UoHDataOffsetStream
247.969828	1.701006	nback_4	4360.919510	Steps:4 KeyPress:False Matched:False	1	n/a	4	False	False	n/a	n/a	n/a	n-backMarkers
248.281962	0.000000	dropped_samples	4361.231644	Dropped 2 samples	n/a	n/a	n/a	n/a	n/a	n/a	n/a	2	UoHDataOffsetStream
249.670811	1.701006	nback_4	4362.620493	Steps:4 KeyPress:True Matched:True	1	n/a	4	True	True	n/a	n/a	n/a	n-backMarkers
249.839908	0.000000	dropped_samples	4362.789590	Dropped 1 samples	n/a	n/a	n/a	n/a	n/a	n/a	n/a	1	UoHDataOffsetStream
250.850113	0.000000	dropped_samples	4363.799795	Dropped 1 samples	n/a	n/a	n/a	n/a	n/a	n/a	n/a	1	UoHDataOffsetStream
251.371871	1.701006	nback_4	4364.321553	Steps:4 KeyPress:False Matched:True	0	n/a	4	False	True	n/a	n/a	n/a	n-backMarkers
253.032762	0.000000	dropped_samples	4365.982444	Dropped 1 samples	n/a	n/a	n/a	n/a	n/a	n/a	n/a	1	UoHDataOffsetStream
253.072683	1.701006	nback_4	4366.022365	Steps:4 KeyPress:False Matched:False	1	n/a	4	False	False	n/a	n/a	n/a	n-backMarkers
253.994696	0.000000	dropped_samples	4366.944378	Dropped 1 samples	n/a	n/a	n/a	n/a	n/a	n/a	n/a	1	UoHDataOffsetStream
254.772952	1.701006	nback_4	4367.722634	Steps:4 KeyPress:False Matched:False	1	n/a	4	False	False	n/a	n/a	n/a	n-backMarkers
256.472913	1.701006	nback_4	4369.422595	Steps:4 KeyPress:False Matched:False	1	n/a	4	False	False	n/a	n/a	n/a	n-backMarkers
256.538595	0.000000	dropped_samples	4369.488277	Dropped 3 samples	n/a	n/a	n/a	n/a	n/a	n/a	n/a	3	UoHDataOffsetStream
258.173686	1.701006	nback_4	4371.123368	Steps:4 KeyPress:True Matched:True	1	n/a	4	True	True	n/a	n/a	n/a	n-backMarkers
259.873875	1.701006	nback_4	4372.823557	Steps:4 KeyPress:False Matched:True	0	n/a	4	False	True	n/a	n/a	n/a	n-backMarkers
260.523363	0.000000	dropped_samples	4373.473045	Dropped 3 samples	n/a	n/a	n/a	n/a	n/a	n/a	n/a	3	UoHDataOffsetStream
261.575859	1.701006	nback_4	4374.525541	Steps:4 KeyPress:False Matched:False	1	n/a	4	False	False	n/a	n/a	n/a	n-backMarkers
262.007387	0.000000	dropped_samples	4374.957069	Dropped 1 samples	n/a	n/a	n/a	n/a	n/a	n/a	n/a	1	UoHDataOffsetStream
263.276765	1.701006	nback_4	4376.226447	Steps:4 KeyPress:False Matched:False	1	n/a	4	False	False	n/a	n/a	n/a	n-backMarkers
264.977862	1.701006	nback_4	4377.927544	Steps:4 KeyPress:False Matched:False	1	n/a	4	False	False	n/a	n/a	n/a	n-backMarkers
265.682532	0.000000	finished_tutorial_n-back	4378.632214	Finished tutorial n-back	n/a	n/a	n/a	n/a	n/a	n/a	n/a	n/a	n-backMarkers
267.383345	0.000000	dropped_samples	4380.333027	Dropped 1 samples	n/a	n/a	n/a	n/a	n/a	n/a	n/a	1	UoHDataOffsetStream
268.154854	0.000000	dropped_samples	4381.104536	Dropped 1 samples	n/a	n/a	n/a	n/a	n/a	n/a	n/a	1	UoHDataOffsetStream
268.511271	0.000000	dropped_samples	4381.460953	Dropped 1 samples	n/a	n/a	n/a	n/a	n/a	n/a	n/a	1	UoHDataOffsetStream
272.851702	0.000000	started_n-back	4385.801384	Started n-back	n/a	n/a	n/a	n/a	n/a	n/a	n/a	n/a	n-backMarkers
276.577684	0.000000	dropped_samples	4389.527366	Dropped 1 samples	n/a	n/a	n/a	n/a	n/a	n/a	n/a	1	UoHDataOffsetStream
280.854555	1.701006	nback_1	4393.804237	Steps:1 KeyPress:False Matched:False	1	n/a	1	False	False	n/a	n/a	n/a	n-backMarkers
282.554226	0.000000	dropped_samples	4395.503908	Dropped 2 samples	n/a	n/a	n/a	n/a	n/a	n/a	n/a	2	UoHDataOffsetStream
282.555539	1.701006	nback_1	4395.505221	Steps:1 KeyPress:True Matched:False	0	n/a	1	True	False	n/a	n/a	n/a	n-backMarkers
283.511288	0.000000	dropped_samples	4396.460970	Dropped 1 samples	n/a	n/a	n/a	n/a	n/a	n/a	n/a	1	UoHDataOffsetStream
284.160688	0.000000	dropped_samples	4397.110370	Dropped 2 samples	n/a	n/a	n/a	n/a	n/a	n/a	n/a	2	UoHDataOffsetStream
284.256487	1.701006	nback_1	4397.206169	Steps:1 KeyPress:False Matched:False	1	n/a	1	False	False	n/a	n/a	n/a	n-backMarkers
285.957423	1.701006	nback_1	4398.907105	Steps:1 KeyPress:True Matched:False	0	n/a	1	True	False	n/a	n/a	n/a	n-backMarkers
287.658431	1.701006	nback_1	4400.608113	Steps:1 KeyPress:False Matched:True	0	n/a	1	False	True	n/a	n/a	n/a	n-backMarkers
287.666593	0.000000	dropped_samples	4400.616275	Dropped 3 samples	n/a	n/a	n/a	n/a	n/a	n/a	n/a	3	UoHDataOffsetStream
288.794485	0.000000	dropped_samples	4401.744168	Dropped 3 samples	n/a	n/a	n/a	n/a	n/a	n/a	n/a	3	UoHDataOffsetStream
289.358604	1.701006	nback_1	4402.308286	Steps:1 KeyPress:False Matched:False	1	n/a	1	False	False	n/a	n/a	n/a	n-backMarkers
289.971254	0.000000	dropped_samples	4402.920936	Dropped 5 samples	n/a	n/a	n/a	n/a	n/a	n/a	n/a	5	UoHDataOffsetStream
290.713492	0.000000	dropped_samples	4403.663174	Dropped 2 samples	n/a	n/a	n/a	n/a	n/a	n/a	n/a	2	UoHDataOffsetStream
290.884520	0.000000	dropped_samples	4403.834202	Dropped 1 samples	n/a	n/a	n/a	n/a	n/a	n/a	n/a	1	UoHDataOffsetStream
291.060647	1.701006	nback_1	4404.010329	Steps:1 KeyPress:True Matched:False	0	n/a	1	True	False	n/a	n/a	n/a	n-backMarkers
292.761257	1.701006	nback_1	4405.710939	Steps:1 KeyPress:False Matched:True	0	n/a	1	False	True	n/a	n/a	n/a	n-backMarkers
292.847579	0.000000	dropped_samples	4405.797261	Dropped 1 samples	n/a	n/a	n/a	n/a	n/a	n/a	n/a	1	UoHDataOffsetStream
293.569902	0.000000	dropped_samples	4406.519584	Dropped 1 samples	n/a	n/a	n/a	n/a	n/a	n/a	n/a	1	UoHDataOffsetStream
293.809165	0.000000	dropped_samples	4406.758848	Dropped 3 samples	n/a	n/a	n/a	n/a	n/a	n/a	n/a	3	UoHDataOffsetStream
294.462400	1.701006	nback_1	4407.412082	Steps:1 KeyPress:False Matched:False	1	n/a	1	False	False	n/a	n/a	n/a	n-backMarkers
296.164578	1.701006	nback_1	4409.114260	Steps:1 KeyPress:True Matched:False	0	n/a	1	True	False	n/a	n/a	n/a	n-backMarkers
297.865046	1.701006	nback_1	4410.814728	Steps:1 KeyPress:False Matched:False	1	n/a	1	False	False	n/a	n/a	n/a	n-backMarkers
299.565285	1.701006	nback_1	4412.514967	Steps:1 KeyPress:True Matched:False	0	n/a	1	True	False	n/a	n/a	n/a	n-backMarkers
301.265454	1.701006	nback_1	4414.215136	Steps:1 KeyPress:False Matched:False	1	n/a	1	False	False	n/a	n/a	n/a	n-backMarkers
302.966587	1.701006	nback_1	4415.916269	Steps:1 KeyPress:True Matched:False	0	n/a	1	True	False	n/a	n/a	n/a	n-backMarkers
304.668368	1.701006	nback_1	4417.618050	Steps:1 KeyPress:True Matched:True	1	n/a	1	True	True	n/a	n/a	n/a	n-backMarkers
304.873632	0.000000	dropped_samples	4417.823314	Dropped 1 samples	n/a	n/a	n/a	n/a	n/a	n/a	n/a	1	UoHDataOffsetStream
306.369282	1.701006	nback_1	4419.318964	Steps:1 KeyPress:False Matched:False	1	n/a	1	False	False	n/a	n/a	n/a	n-backMarkers
307.768221	0.000000	dropped_samples	4420.717903	Dropped 1 samples	n/a	n/a	n/a	n/a	n/a	n/a	n/a	1	UoHDataOffsetStream
308.069867	1.701006	nback_1	4421.019549	Steps:1 KeyPress:True Matched:False	0	n/a	1	True	False	n/a	n/a	n/a	n-backMarkers
309.771373	1.701006	nback_1	4422.721055	Steps:1 KeyPress:False Matched:True	0	n/a	1	False	True	n/a	n/a	n/a	n-backMarkers
311.472390	1.701006	nback_1	4424.422072	Steps:1 KeyPress:False Matched:False	1	n/a	1	False	False	n/a	n/a	n/a	n-backMarkers
313.173335	1.701006	nback_1	4426.123017	Steps:1 KeyPress:True Matched:False	0	n/a	1	True	False	n/a	n/a	n/a	n-backMarkers
314.185105	0.000000	dropped_samples	4427.134787	Dropped 3 samples	n/a	n/a	n/a	n/a	n/a	n/a	n/a	3	UoHDataOffsetStream
314.874450	1.701006	nback_1	4427.824132	Steps:1 KeyPress:False Matched:True	0	n/a	1	False	True	n/a	n/a	n/a	n-backMarkers
315.723233	0.000000	dropped_samples	4428.672915	Dropped 3 samples	n/a	n/a	n/a	n/a	n/a	n/a	n/a	3	UoHDataOffsetStream
316.575367	1.701006	nback_1	4429.525049	Steps:1 KeyPress:False Matched:False	1	n/a	1	False	False	n/a	n/a	n/a	n-backMarkers
318.276395	1.701006	nback_1	4431.226077	Steps:1 KeyPress:True Matched:False	0	n/a	1	True	False	n/a	n/a	n/a	n-backMarkers
319.977853	1.701006	nback_1	4432.927535	Steps:1 KeyPress:False Matched:True	0	n/a	1	False	True	n/a	n/a	n/a	n-backMarkers
321.678412	1.701006	nback_1	4434.628094	Steps:1 KeyPress:False Matched:False	1	n/a	1	False	False	n/a	n/a	n/a	n-backMarkers
323.379397	1.701006	nback_1	4436.329079	Steps:1 KeyPress:True Matched:False	0	n/a	1	True	False	n/a	n/a	n/a	n-backMarkers
323.403965	0.000000	dropped_samples	4436.353647	Dropped 2 samples	n/a	n/a	n/a	n/a	n/a	n/a	n/a	2	UoHDataOffsetStream
323.545500	0.000000	dropped_samples	4436.495182	Dropped 1 samples	n/a	n/a	n/a	n/a	n/a	n/a	n/a	1	UoHDataOffsetStream
323.760337	0.000000	dropped_samples	4436.710019	Dropped 1 samples	n/a	n/a	n/a	n/a	n/a	n/a	n/a	1	UoHDataOffsetStream
325.080418	1.701006	nback_1	4438.030100	Steps:1 KeyPress:False Matched:True	0	n/a	1	False	True	n/a	n/a	n/a	n-backMarkers
326.780839	1.701006	nback_1	4439.730521	Steps:1 KeyPress:False Matched:False	1	n/a	1	False	False	n/a	n/a	n/a	n-backMarkers
328.481238	1.701006	nback_1	4441.430920	Steps:1 KeyPress:True Matched:False	0	n/a	1	True	False	n/a	n/a	n/a	n-backMarkers
329.546516	0.000000	dropped_samples	4442.496198	Dropped 1 samples	n/a	n/a	n/a	n/a	n/a	n/a	n/a	1	UoHDataOffsetStream
330.182373	1.701006	nback_1	4443.132055	Steps:1 KeyPress:False Matched:False	1	n/a	1	False	False	n/a	n/a	n/a	n-backMarkers
331.882445	1.701006	nback_1	4444.832127	Steps:1 KeyPress:True Matched:False	0	n/a	1	True	False	n/a	n/a	n/a	n-backMarkers
333.583373	1.701006	nback_1	4446.533055	Steps:1 KeyPress:False Matched:True	0	n/a	1	False	True	n/a	n/a	n/a	n-backMarkers
335.284659	1.701006	nback_1	4448.234341	Steps:1 KeyPress:False Matched:False	1	n/a	1	False	False	n/a	n/a	n/a	n-backMarkers
336.216487	0.000000	dropped_samples	4449.166169	Dropped 1 samples	n/a	n/a	n/a	n/a	n/a	n/a	n/a	1	UoHDataOffsetStream
336.986302	1.701006	nback_1	4449.935984	Steps:1 KeyPress:True Matched:False	0	n/a	1	True	False	n/a	n/a	n/a	n-backMarkers
338.686334	1.701006	nback_1	4451.636016	Steps:1 KeyPress:False Matched:True	0	n/a	1	False	True	n/a	n/a	n/a	n-backMarkers
340.387302	1.701006	nback_1	4453.336984	Steps:1 KeyPress:True Matched:False	0	n/a	1	True	False	n/a	n/a	n/a	n-backMarkers
342.088947	1.701006	nback_1	4455.038629	Steps:1 KeyPress:True Matched:True	1	n/a	1	True	True	n/a	n/a	n/a	n-backMarkers
343.789351	1.701006	nback_1	4456.739033	Steps:1 KeyPress:False Matched:True	0	n/a	1	False	True	n/a	n/a	n/a	n-backMarkers
344.185187	0.000000	dropped_samples	4457.134869	Dropped 1 samples	n/a	n/a	n/a	n/a	n/a	n/a	n/a	1	UoHDataOffsetStream
345.490326	1.701006	nback_1	4458.440008	Steps:1 KeyPress:False Matched:True	0	n/a	1	False	True	n/a	n/a	n/a	n-backMarkers
347.192170	1.701006	nback_1	4460.141852	Steps:1 KeyPress:False Matched:False	1	n/a	1	False	False	n/a	n/a	n/a	n-backMarkers
347.428114	0.000000	dropped_samples	4460.377796	Dropped 1 samples	n/a	n/a	n/a	n/a	n/a	n/a	n/a	1	UoHDataOffsetStream
348.893232	1.701006	nback_1	4461.842914	Steps:1 KeyPress:False Matched:False	1	n/a	1	False	False	n/a	n/a	n/a	n-backMarkers
349.751579	0.000000	dropped_samples	4462.701261	Dropped 1 samples	n/a	n/a	n/a	n/a	n/a	n/a	n/a	1	UoHDataOffsetStream
350.594356	1.701006	nback_1	4463.544038	Steps:1 KeyPress:True Matched:False	0	n/a	1	True	False	n/a	n/a	n/a	n-backMarkers
352.295441	1.701006	nback_1	4465.245123	Steps:1 KeyPress:False Matched:False	1	n/a	1	False	False	n/a	n/a	n/a	n-backMarkers
353.997270	1.701006	nback_1	4466.946952	Steps:1 KeyPress:True Matched:False	0	n/a	1	True	False	n/a	n/a	n/a	n-backMarkers
354.507468	0.000000	dropped_samples	4467.457150	Dropped 2 samples	n/a	n/a	n/a	n/a	n/a	n/a	n/a	2	UoHDataOffsetStream
355.697965	1.701006	nback_1	4468.647647	Steps:1 KeyPress:False Matched:False	1	n/a	1	False	False	n/a	n/a	n/a	n-backMarkers
357.315093	0.000000	dropped_samples	4470.264775	Dropped 1 samples	n/a	n/a	n/a	n/a	n/a	n/a	n/a	1	UoHDataOffsetStream
357.398339	1.701006	nback_1	4470.348021	Steps:1 KeyPress:True Matched:False	0	n/a	1	True	False	n/a	n/a	n/a	n-backMarkers
359.099611	1.701006	nback_1	4472.049293	Steps:1 KeyPress:False Matched:False	1	n/a	1	False	False	n/a	n/a	n/a	n-backMarkers
360.801227	1.701006	nback_1	4473.750909	Steps:1 KeyPress:True Matched:False	0	n/a	1	True	False	n/a	n/a	n/a	n-backMarkers
362.502385	1.701006	nback_1	4475.452067	Steps:1 KeyPress:True Matched:True	1	n/a	1	True	True	n/a	n/a	n/a	n-backMarkers
364.204237	1.701006	nback_1	4477.153919	Steps:1 KeyPress:False Matched:True	0	n/a	1	False	True	n/a	n/a	n/a	n-backMarkers
365.905482	1.701006	nback_1	4478.855164	Steps:1 KeyPress:False Matched:True	0	n/a	1	False	True	n/a	n/a	n/a	n-backMarkers
367.607279	1.701006	nback_1	4480.556961	Steps:1 KeyPress:False Matched:False	1	n/a	1	False	False	n/a	n/a	n/a	n-backMarkers
369.308114	1.701006	nback_1	4482.257796	Steps:1 KeyPress:False Matched:False	1	n/a	1	False	False	n/a	n/a	n/a	n-backMarkers
370.030181	0.000000	dropped_samples	4482.979863	Dropped 1 samples	n/a	n/a	n/a	n/a	n/a	n/a	n/a	1	UoHDataOffsetStream
371.009232	1.701006	nback_1	4483.958914	Steps:1 KeyPress:True Matched:False	0	n/a	1	True	False	n/a	n/a	n/a	n-backMarkers
372.710272	1.701006	nback_1	4485.659954	Steps:1 KeyPress:False Matched:False	1	n/a	1	False	False	n/a	n/a	n/a	n-backMarkers
373.272152	0.000000	dropped_samples	4486.221834	Dropped 3 samples	n/a	n/a	n/a	n/a	n/a	n/a	n/a	3	UoHDataOffsetStream
374.412581	1.701006	nback_1	4487.362263	Steps:1 KeyPress:True Matched:False	0	n/a	1	True	False	n/a	n/a	n/a	n-backMarkers
374.497735	0.000000	dropped_samples	4487.447417	Dropped 3 samples	n/a	n/a	n/a	n/a	n/a	n/a	n/a	3	UoHDataOffsetStream
375.698916	0.000000	dropped_samples	4488.648598	Dropped 1 samples	n/a	n/a	n/a	n/a	n/a	n/a	n/a	1	UoHDataOffsetStream
376.112334	1.701006	nback_1	4489.062016	Steps:1 KeyPress:False Matched:False	1	n/a	1	False	False	n/a	n/a	n/a	n-backMarkers
377.813915	1.701006	nback_1	4490.763597	Steps:1 KeyPress:True Matched:False	0	n/a	1	True	False	n/a	n/a	n/a	n-backMarkers
379.515158	1.701006	nback_1	4492.464840	Steps:1 KeyPress:False Matched:False	1	n/a	1	False	False	n/a	n/a	n/a	n-backMarkers
381.215299	1.701006	nback_1	4494.164981	Steps:1 KeyPress:True Matched:False	0	n/a	1	True	False	n/a	n/a	n/a	n-backMarkers
382.916482	1.701006	nback_1	4495.866164	Steps:1 KeyPress:False Matched:True	0	n/a	1	False	True	n/a	n/a	n/a	n-backMarkers
384.617003	1.701006	nback_1	4497.566685	Steps:1 KeyPress:False Matched:True	0	n/a	1	False	True	n/a	n/a	n/a	n-backMarkers
386.318155	1.701006	nback_1	4499.267837	Steps:1 KeyPress:False Matched:False	1	n/a	1	False	False	n/a	n/a	n/a	n-backMarkers
387.530231	0.000000	dropped_samples	4500.479914	Dropped 3 samples	n/a	n/a	n/a	n/a	n/a	n/a	n/a	3	UoHDataOffsetStream
388.019214	1.701006	nback_1	4500.968896	Steps:1 KeyPress:False Matched:False	1	n/a	1	False	False	n/a	n/a	n/a	n-backMarkers
389.719439	1.701006	nback_1	4502.669121	Steps:1 KeyPress:True Matched:False	0	n/a	1	True	False	n/a	n/a	n/a	n-backMarkers
391.421223	1.701006	nback_1	4504.370905	Steps:1 KeyPress:False Matched:True	0	n/a	1	False	True	n/a	n/a	n/a	n-backMarkers
392.808278	0.000000	dropped_samples	4505.757960	Dropped 1 samples	n/a	n/a	n/a	n/a	n/a	n/a	n/a	1	UoHDataOffsetStream
393.123110	1.701006	nback_1	4506.072792	Steps:1 KeyPress:False Matched:True	0	n/a	1	False	True	n/a	n/a	n/a	n-backMarkers
393.892243	0.000000	dropped_samples	4506.841925	Dropped 1 samples	n/a	n/a	n/a	n/a	n/a	n/a	n/a	1	UoHDataOffsetStream
394.824325	1.701006	nback_1	4507.774007	Steps:1 KeyPress:False Matched:False	1	n/a	1	False	False	n/a	n/a	n/a	n-backMarkers
396.525095	1.701006	nback_1	4509.474777	Steps:1 KeyPress:True Matched:False	0	n/a	1	True	False	n/a	n/a	n/a	n-backMarkers
397.466497	0.000000	dropped_samples	4510.416179	Dropped 1 samples	n/a	n/a	n/a	n/a	n/a	n/a	n/a	1	UoHDataOffsetStream
398.226176	1.701006	nback_1	4511.175858	Steps:1 KeyPress:False Matched:True	0	n/a	1	False	True	n/a	n/a	n/a	n-backMarkers
399.844433	0.000000	dropped_samples	4512.794115	Dropped 1 samples	n/a	n/a	n/a	n/a	n/a	n/a	n/a	1	UoHDataOffsetStream
399.927560	1.701006	nback_1	4512.877242	Steps:1 KeyPress:False Matched:True	0	n/a	1	False	True	n/a	n/a	n/a	n-backMarkers
401.328837	0.000000	dropped_samples	4514.278519	Dropped 3 samples	n/a	n/a	n/a	n/a	n/a	n/a	n/a	3	UoHDataOffsetStream
401.628434	1.701006	nback_1	4514.578116	Steps:1 KeyPress:False Matched:False	1	n/a	1	False	False	n/a	n/a	n/a	n-backMarkers
401.906946	0.000000	dropped_samples	4514.856628	Dropped 1 samples	n/a	n/a	n/a	n/a	n/a	n/a	n/a	1	UoHDataOffsetStream
402.505623	0.000000	dropped_samples	4515.455305	Dropped 1 samples	n/a	n/a	n/a	n/a	n/a	n/a	n/a	1	UoHDataOffsetStream
402.940154	0.000000	dropped_samples	4515.889836	Dropped 1 samples	n/a	n/a	n/a	n/a	n/a	n/a	n/a	1	UoHDataOffsetStream
403.272531	0.000000	dropped_samples	4516.222213	Dropped 3 samples	n/a	n/a	n/a	n/a	n/a	n/a	n/a	3	UoHDataOffsetStream
403.328450	1.701006	nback_1	4516.278132	Steps:1 KeyPress:True Matched:False	0	n/a	1	True	False	n/a	n/a	n/a	n-backMarkers
403.970454	0.000000	dropped_samples	4516.920136	Dropped 2 samples	n/a	n/a	n/a	n/a	n/a	n/a	n/a	2	UoHDataOffsetStream
405.030288	1.701006	nback_1	4517.979970	Steps:1 KeyPress:False Matched:False	1	n/a	1	False	False	n/a	n/a	n/a	n-backMarkers
406.731160	1.701006	nback_1	4519.680842	Steps:1 KeyPress:True Matched:False	0	n/a	1	True	False	n/a	n/a	n/a	n-backMarkers
407.256629	0.000000	dropped_samples	4520.206311	Dropped 1 samples	n/a	n/a	n/a	n/a	n/a	n/a	n/a	1	UoHDataOffsetStream
408.432591	1.701006	nback_1	4521.382273	Steps:1 KeyPress:False Matched:True	0	n/a	1	False	True	n/a	n/a	n/a	n-backMarkers
410.133045	1.701006	nback_1	4523.082727	Steps:1 KeyPress:False Matched:True	0	n/a	1	False	True	n/a	n/a	n/a	n-backMarkers
410.987374	0.000000	dropped_samples	4523.937056	Dropped 3 samples	n/a	n/a	n/a	n/a	n/a	n/a	n/a	3	UoHDataOffsetStream
411.833943	1.701006	nback_1	4524.783625	Steps:1 KeyPress:False Matched:False	1	n/a	1	False	False	n/a	n/a	n/a	n-backMarkers
413.534442	1.701006	nback_1	4526.484124	Steps:1 KeyPress:False Matched:False	1	n/a	1	False	False	n/a	n/a	n/a	n-backMarkers
415.235254	1.701006	nback_1	4528.184936	Steps:1 KeyPress:False Matched:False	1	n/a	1	False	False	n/a	n/a	n/a	n-backMarkers
415.923532	0.000000	dropped_samples	4528.873214	Dropped 1 samples	n/a	n/a	n/a	n/a	n/a	n/a	n/a	1	UoHDataOffsetStream
416.936261	1.701006	nback_1	4529.885943	Steps:1 KeyPress:True Matched:False	0	n/a	1	True	False	n/a	n/a	n/a	n-backMarkers
417.412827	0.000000	dropped_samples	4530.362509	Dropped 1 samples	n/a	n/a	n/a	n/a	n/a	n/a	n/a	1	UoHDataOffsetStream
418.637194	1.701006	nback_1	4531.586876	Steps:1 KeyPress:False Matched:False	1	n/a	1	False	False	n/a	n/a	n/a	n-backMarkers
420.337693	1.701006	nback_1	4533.287375	Steps:1 KeyPress:True Matched:False	0	n/a	1	True	False	n/a	n/a	n/a	n-backMarkers
422.038208	1.701006	nback_1	4534.987890	Steps:1 KeyPress:False Matched:False	1	n/a	1	False	False	n/a	n/a	n/a	n-backMarkers
423.291746	0.000000	dropped_samples	4536.241428	Dropped 1 samples	n/a	n/a	n/a	n/a	n/a	n/a	n/a	1	UoHDataOffsetStream
423.739021	1.701006	nback_1	4536.688703	Steps:1 KeyPress:True Matched:False	0	n/a	1	True	False	n/a	n/a	n/a	n-backMarkers
425.440288	1.701006	nback_1	4538.389970	Steps:1 KeyPress:False Matched:True	0	n/a	1	False	True	n/a	n/a	n/a	n-backMarkers
427.141123	1.701006	nback_1	4540.090805	Steps:1 KeyPress:False Matched:False	1	n/a	1	False	False	n/a	n/a	n/a	n-backMarkers
428.841152	1.701006	nback_1	4541.790834	Steps:1 KeyPress:True Matched:False	0	n/a	1	True	False	n/a	n/a	n/a	n-backMarkers
430.542090	1.701006	nback_1	4543.491772	Steps:1 KeyPress:False Matched:False	1	n/a	1	False	False	n/a	n/a	n/a	n-backMarkers
432.242156	1.701006	nback_1	4545.191838	Steps:1 KeyPress:True Matched:False	0	n/a	1	True	False	n/a	n/a	n/a	n-backMarkers
432.866923	0.000000	dropped_samples	4545.816605	Dropped 1 samples	n/a	n/a	n/a	n/a	n/a	n/a	n/a	1	UoHDataOffsetStream
433.943118	1.701006	nback_1	4546.892800	Steps:1 KeyPress:False Matched:True	0	n/a	1	False	True	n/a	n/a	n/a	n-backMarkers
434.161902	0.000000	dropped_samples	4547.111584	Dropped 1 samples	n/a	n/a	n/a	n/a	n/a	n/a	n/a	1	UoHDataOffsetStream
435.644334	1.701006	nback_1	4548.594016	Steps:1 KeyPress:False Matched:False	1	n/a	1	False	False	n/a	n/a	n/a	n-backMarkers
437.041759	0.000000	dropped_samples	4549.991441	Dropped 2 samples	n/a	n/a	n/a	n/a	n/a	n/a	n/a	2	UoHDataOffsetStream
437.345224	1.701006	nback_1	4550.294906	Steps:1 KeyPress:True Matched:False	0	n/a	1	True	False	n/a	n/a	n/a	n-backMarkers
439.045254	1.701006	nback_1	4551.994936	Steps:1 KeyPress:False Matched:False	1	n/a	1	False	False	n/a	n/a	n/a	n-backMarkers
440.746070	1.701006	nback_1	4553.695752	Steps:1 KeyPress:True Matched:False	0	n/a	1	True	False	n/a	n/a	n/a	n-backMarkers
441.485120	0.000000	dropped_samples	4554.434802	Dropped 3 samples	n/a	n/a	n/a	n/a	n/a	n/a	n/a	3	UoHDataOffsetStream
442.447108	1.701006	nback_1	4555.396790	Steps:1 KeyPress:False Matched:True	0	n/a	1	False	True	n/a	n/a	n/a	n-backMarkers
443.208724	0.000000	dropped_samples	4556.158406	Dropped 2 samples	n/a	n/a	n/a	n/a	n/a	n/a	n/a	2	UoHDataOffsetStream
444.149015	1.701006	nback_1	4557.098697	Steps:1 KeyPress:False Matched:True	0	n/a	1	False	True	n/a	n/a	n/a	n-backMarkers
445.850075	1.701006	nback_1	4558.799757	Steps:1 KeyPress:False Matched:False	1	n/a	1	False	False	n/a	n/a	n/a	n-backMarkers
447.551209	1.701006	nback_1	4560.500891	Steps:1 KeyPress:False Matched:False	1	n/a	1	False	False	n/a	n/a	n/a	n-backMarkers
449.252344	1.701006	nback_1	4562.202026	Steps:1 KeyPress:False Matched:False	1	n/a	1	False	False	n/a	n/a	n/a	n-backMarkers
451.153100	0.000000	dropped_samples	4564.102782	Dropped 1 samples	n/a	n/a	n/a	n/a	n/a	n/a	n/a	1	UoHDataOffsetStream
452.700405	0.000000	dropped_samples	4565.650087	Dropped 1 samples	n/a	n/a	n/a	n/a	n/a	n/a	n/a	1	UoHDataOffsetStream
454.517581	0.000000	dropped_samples	4567.467263	Dropped 1 samples	n/a	n/a	n/a	n/a	n/a	n/a	n/a	1	UoHDataOffsetStream
454.898180	0.000000	dropped_samples	4567.847862	Dropped 1 samples	n/a	n/a	n/a	n/a	n/a	n/a	n/a	1	UoHDataOffsetStream
457.967217	1.701006	nback_2	4570.916899	Steps:2 KeyPress:False Matched:False	1	n/a	2	False	False	n/a	n/a	n/a	n-backMarkers
458.545784	0.000000	dropped_samples	4571.495466	Dropped 2 samples	n/a	n/a	n/a	n/a	n/a	n/a	n/a	2	UoHDataOffsetStream
459.668096	1.701006	nback_2	4572.617778	Steps:2 KeyPress:False Matched:False	1	n/a	2	False	False	n/a	n/a	n/a	n-backMarkers
461.368979	1.701006	nback_2	4574.318661	Steps:2 KeyPress:False Matched:False	1	n/a	2	False	False	n/a	n/a	n/a	n-backMarkers
462.339649	0.000000	dropped_samples	4575.289332	Dropped 1 samples	n/a	n/a	n/a	n/a	n/a	n/a	n/a	1	UoHDataOffsetStream
463.069087	1.701006	nback_2	4576.018769	Steps:2 KeyPress:False Matched:False	1	n/a	2	False	False	n/a	n/a	n/a	n-backMarkers
463.921620	0.000000	dropped_samples	4576.871302	Dropped 1 samples	n/a	n/a	n/a	n/a	n/a	n/a	n/a	1	UoHDataOffsetStream
464.769122	1.701006	nback_2	4577.718804	Steps:2 KeyPress:True Matched:False	0	n/a	2	True	False	n/a	n/a	n/a	n-backMarkers
465.000880	0.000000	dropped_samples	4577.950562	Dropped 1 samples	n/a	n/a	n/a	n/a	n/a	n/a	n/a	1	UoHDataOffsetStream
466.470136	1.701006	nback_2	4579.419818	Steps:2 KeyPress:False Matched:True	0	n/a	2	False	True	n/a	n/a	n/a	n-backMarkers
466.514405	0.000000	dropped_samples	4579.464087	Dropped 1 samples	n/a	n/a	n/a	n/a	n/a	n/a	n/a	1	UoHDataOffsetStream
468.171081	1.701006	nback_2	4581.120763	Steps:2 KeyPress:False Matched:False	1	n/a	2	False	False	n/a	n/a	n/a	n-backMarkers
469.872136	1.701006	nback_2	4582.821818	Steps:2 KeyPress:True Matched:True	1	n/a	2	True	True	n/a	n/a	n/a	n-backMarkers
471.573807	1.701006	nback_2	4584.523489	Steps:2 KeyPress:False Matched:False	1	n/a	2	False	False	n/a	n/a	n/a	n-backMarkers
473.274525	1.701006	nback_2	4586.224207	Steps:2 KeyPress:True Matched:True	1	n/a	2	True	True	n/a	n/a	n/a	n-backMarkers
474.844537	0.000000	dropped_samples	4587.794219	Dropped 1 samples	n/a	n/a	n/a	n/a	n/a	n/a	n/a	1	UoHDataOffsetStream
474.975991	1.701006	nback_2	4587.925673	Steps:2 KeyPress:False Matched:True	0	n/a	2	False	True	n/a	n/a	n/a	n-backMarkers
475.371896	0.000000	dropped_samples	4588.321579	Dropped 1 samples	n/a	n/a	n/a	n/a	n/a	n/a	n/a	1	UoHDataOffsetStream
476.665814	0.000000	dropped_samples	4589.615496	Dropped 1 samples	n/a	n/a	n/a	n/a	n/a	n/a	n/a	1	UoHDataOffsetStream
476.677009	1.701006	nback_2	4589.626691	Steps:2 KeyPress:False Matched:False	1	n/a	2	False	False	n/a	n/a	n/a	n-backMarkers
478.378024	1.701006	nback_2	4591.327706	Steps:2 KeyPress:False Matched:False	1	n/a	2	False	False	n/a	n/a	n/a	n-backMarkers
479.068137	0.000000	dropped_samples	4592.017819	Dropped 1 samples	n/a	n/a	n/a	n/a	n/a	n/a	n/a	1	UoHDataOffsetStream
480.079227	1.701006	nback_2	4593.028909	Steps:2 KeyPress:False Matched:False	1	n/a	2	False	False	n/a	n/a	n/a	n-backMarkers
481.780026	1.701006	nback_2	4594.729708	Steps:2 KeyPress:True Matched:False	0	n/a	2	True	False	n/a	n/a	n/a	n-backMarkers
482.212704	0.000000	dropped_samples	4595.162386	Dropped 1 samples	n/a	n/a	n/a	n/a	n/a	n/a	n/a	1	UoHDataOffsetStream
483.481097	1.701006	nback_2	4596.430779	Steps:2 KeyPress:False Matched:True	0	n/a	2	False	True	n/a	n/a	n/a	n-backMarkers
485.182009	1.701006	nback_2	4598.131691	Steps:2 KeyPress:False Matched:False	1	n/a	2	False	False	n/a	n/a	n/a	n-backMarkers
486.883093	1.701006	nback_2	4599.832775	Steps:2 KeyPress:False Matched:False	1	n/a	2	False	False	n/a	n/a	n/a	n-backMarkers
488.585055	1.701006	nback_2	4601.534737	Steps:2 KeyPress:True Matched:False	0	n/a	2	True	False	n/a	n/a	n/a	n-backMarkers
489.556808	0.000000	dropped_samples	4602.506490	Dropped 1 samples	n/a	n/a	n/a	n/a	n/a	n/a	n/a	1	UoHDataOffsetStream
489.629881	0.000000	dropped_samples	4602.579563	Dropped 3 samples	n/a	n/a	n/a	n/a	n/a	n/a	n/a	3	UoHDataOffsetStream
490.285172	1.701006	nback_2	4603.234854	Steps:2 KeyPress:False Matched:False	1	n/a	2	False	False	n/a	n/a	n/a	n-backMarkers
490.733228	0.000000	dropped_samples	4603.682910	Dropped 1 samples	n/a	n/a	n/a	n/a	n/a	n/a	n/a	1	UoHDataOffsetStream
491.450990	0.000000	dropped_samples	4604.400672	Dropped 2 samples	n/a	n/a	n/a	n/a	n/a	n/a	n/a	2	UoHDataOffsetStream
491.986899	1.701006	nback_2	4604.936581	Steps:2 KeyPress:True Matched:False	0	n/a	2	True	False	n/a	n/a	n/a	n-backMarkers
493.687864	1.701006	nback_2	4606.637546	Steps:2 KeyPress:False Matched:False	1	n/a	2	False	False	n/a	n/a	n/a	n-backMarkers
493.706901	0.000000	dropped_samples	4606.656583	Dropped 3 samples	n/a	n/a	n/a	n/a	n/a	n/a	n/a	3	UoHDataOffsetStream
495.389078	1.701006	nback_2	4608.338760	Steps:2 KeyPress:True Matched:False	0	n/a	2	True	False	n/a	n/a	n/a	n-backMarkers
495.601378	0.000000	dropped_samples	4608.551060	Dropped 1 samples	n/a	n/a	n/a	n/a	n/a	n/a	n/a	1	UoHDataOffsetStream
497.089057	1.701006	nback_2	4610.038739	Steps:2 KeyPress:False Matched:False	1	n/a	2	False	False	n/a	n/a	n/a	n-backMarkers
498.506693	0.000000	dropped_samples	4611.456375	Dropped 1 samples	n/a	n/a	n/a	n/a	n/a	n/a	n/a	1	UoHDataOffsetStream
498.790125	1.701006	nback_2	4611.739807	Steps:2 KeyPress:False Matched:False	1	n/a	2	False	False	n/a	n/a	n/a	n-backMarkers
500.490978	1.701006	nback_2	4613.440660	Steps:2 KeyPress:True Matched:False	0	n/a	2	True	False	n/a	n/a	n/a	n-backMarkers
502.191399	1.701006	nback_2	4615.141081	Steps:2 KeyPress:False Matched:True	0	n/a	2	False	True	n/a	n/a	n/a	n-backMarkers
503.891460	1.701006	nback_2	4616.841142	Steps:2 KeyPress:False Matched:False	1	n/a	2	False	False	n/a	n/a	n/a	n-backMarkers
505.592666	1.701006	nback_2	4618.542348	Steps:2 KeyPress:False Matched:False	1	n/a	2	False	False	n/a	n/a	n/a	n-backMarkers
506.573084	0.000000	dropped_samples	4619.522766	Dropped 1 samples	n/a	n/a	n/a	n/a	n/a	n/a	n/a	1	UoHDataOffsetStream
507.294020	1.701006	nback_2	4620.243702	Steps:2 KeyPress:True Matched:False	0	n/a	2	True	False	n/a	n/a	n/a	n-backMarkers
508.877771	0.000000	dropped_samples	4621.827453	Dropped 1 samples	n/a	n/a	n/a	n/a	n/a	n/a	n/a	1	UoHDataOffsetStream
508.995780	1.701006	nback_2	4621.945462	Steps:2 KeyPress:False Matched:True	0	n/a	2	False	True	n/a	n/a	n/a	n-backMarkers
510.695925	1.701006	nback_2	4623.645607	Steps:2 KeyPress:False Matched:False	1	n/a	2	False	False	n/a	n/a	n/a	n-backMarkers
512.396596	1.701006	nback_2	4625.346278	Steps:2 KeyPress:False Matched:False	1	n/a	2	False	False	n/a	n/a	n/a	n-backMarkers
513.745928	0.000000	dropped_samples	4626.695610	Dropped 1 samples	n/a	n/a	n/a	n/a	n/a	n/a	n/a	1	UoHDataOffsetStream
514.096959	1.701006	nback_2	4627.046641	Steps:2 KeyPress:True Matched:False	0	n/a	2	True	False	n/a	n/a	n/a	n-backMarkers
515.235213	0.000000	dropped_samples	4628.184895	Dropped 1 samples	n/a	n/a	n/a	n/a	n/a	n/a	n/a	1	UoHDataOffsetStream
515.738112	0.000000	dropped_samples	4628.687794	Dropped 1 samples	n/a	n/a	n/a	n/a	n/a	n/a	n/a	1	UoHDataOffsetStream
515.797904	1.701006	nback_2	4628.747586	Steps:2 KeyPress:False Matched:False	1	n/a	2	False	False	n/a	n/a	n/a	n-backMarkers
516.123900	0.000000	dropped_samples	4629.073582	Dropped 3 samples	n/a	n/a	n/a	n/a	n/a	n/a	n/a	3	UoHDataOffsetStream
517.498047	1.701006	nback_2	4630.447729	Steps:2 KeyPress:False Matched:False	1	n/a	2	False	False	n/a	n/a	n/a	n-backMarkers
517.661997	0.000000	dropped_samples	4630.611679	Dropped 3 samples	n/a	n/a	n/a	n/a	n/a	n/a	n/a	3	UoHDataOffsetStream
517.901220	0.000000	dropped_samples	4630.850902	Dropped 1 samples	n/a	n/a	n/a	n/a	n/a	n/a	n/a	1	UoHDataOffsetStream
519.199804	1.701006	nback_2	4632.149486	Steps:2 KeyPress:True Matched:False	0	n/a	2	True	False	n/a	n/a	n/a	n-backMarkers
520.900946	1.701006	nback_2	4633.850628	Steps:2 KeyPress:False Matched:True	0	n/a	2	False	True	n/a	n/a	n/a	n-backMarkers
520.923963	0.000000	dropped_samples	4633.873645	Dropped 1 samples	n/a	n/a	n/a	n/a	n/a	n/a	n/a	1	UoHDataOffsetStream
522.601918	1.701006	nback_2	4635.551600	Steps:2 KeyPress:True Matched:False	0	n/a	2	True	False	n/a	n/a	n/a	n-backMarkers
523.179591	0.000000	dropped_samples	4636.129273	Dropped 1 samples	n/a	n/a	n/a	n/a	n/a	n/a	n/a	1	UoHDataOffsetStream
523.706919	0.000000	dropped_samples	4636.656601	Dropped 1 samples	n/a	n/a	n/a	n/a	n/a	n/a	n/a	1	UoHDataOffsetStream
524.302492	1.701006	nback_2	4637.252174	Steps:2 KeyPress:False Matched:True	0	n/a	2	False	True	n/a	n/a	n/a	n-backMarkers
526.004248	1.701006	nback_2	4638.953930	Steps:2 KeyPress:True Matched:False	0	n/a	2	True	False	n/a	n/a	n/a	n-backMarkers
526.158175	0.000000	dropped_samples	4639.107857	Dropped 1 samples	n/a	n/a	n/a	n/a	n/a	n/a	n/a	1	UoHDataOffsetStream
527.704890	1.701006	nback_2	4640.654572	Steps:2 KeyPress:False Matched:False	1	n/a	2	False	False	n/a	n/a	n/a	n-backMarkers
529.404956	1.701006	nback_2	4642.354638	Steps:2 KeyPress:False Matched:False	1	n/a	2	False	False	n/a	n/a	n/a	n-backMarkers
530.738162	0.000000	dropped_samples	4643.687844	Dropped 1 samples	n/a	n/a	n/a	n/a	n/a	n/a	n/a	1	UoHDataOffsetStream
531.105861	1.701006	nback_2	4644.055543	Steps:2 KeyPress:False Matched:False	1	n/a	2	False	False	n/a	n/a	n/a	n-backMarkers
531.221570	0.000000	dropped_samples	4644.171252	Dropped 3 samples	n/a	n/a	n/a	n/a	n/a	n/a	n/a	3	UoHDataOffsetStream
531.387548	0.000000	dropped_samples	4644.337230	Dropped 1 samples	n/a	n/a	n/a	n/a	n/a	n/a	n/a	1	UoHDataOffsetStream
532.276258	0.000000	dropped_samples	4645.225940	Dropped 3 samples	n/a	n/a	n/a	n/a	n/a	n/a	n/a	3	UoHDataOffsetStream
532.806872	1.701006	nback_2	4645.756554	Steps:2 KeyPress:False Matched:False	1	n/a	2	False	False	n/a	n/a	n/a	n-backMarkers
534.507095	1.701006	nback_2	4647.456777	Steps:2 KeyPress:False Matched:False	1	n/a	2	False	False	n/a	n/a	n/a	n-backMarkers
535.757663	0.000000	dropped_samples	4648.707345	Dropped 3 samples	n/a	n/a	n/a	n/a	n/a	n/a	n/a	3	UoHDataOffsetStream
536.208731	1.701006	nback_2	4649.158413	Steps:2 KeyPress:True Matched:False	0	n/a	2	True	False	n/a	n/a	n/a	n-backMarkers
537.909423	1.701006	nback_2	4650.859105	Steps:2 KeyPress:False Matched:True	0	n/a	2	False	True	n/a	n/a	n/a	n-backMarkers
539.546752	0.000000	dropped_samples	4652.496434	Dropped 1 samples	n/a	n/a	n/a	n/a	n/a	n/a	n/a	1	UoHDataOffsetStream
539.610508	1.701006	nback_2	4652.560190	Steps:2 KeyPress:False Matched:False	1	n/a	2	False	False	n/a	n/a	n/a	n-backMarkers
541.084835	0.000000	dropped_samples	4654.034518	Dropped 1 samples	n/a	n/a	n/a	n/a	n/a	n/a	n/a	1	UoHDataOffsetStream
541.311446	1.701006	nback_2	4654.261128	Steps:2 KeyPress:False Matched:False	1	n/a	2	False	False	n/a	n/a	n/a	n-backMarkers
543.011944	1.701006	nback_2	4655.961626	Steps:2 KeyPress:True Matched:False	0	n/a	2	True	False	n/a	n/a	n/a	n-backMarkers
544.156112	0.000000	dropped_samples	4657.105794	Dropped 1 samples	n/a	n/a	n/a	n/a	n/a	n/a	n/a	1	UoHDataOffsetStream
544.713639	1.701006	nback_2	4657.663321	Steps:2 KeyPress:False Matched:True	0	n/a	2	False	True	n/a	n/a	n/a	n-backMarkers
545.621003	0.000000	dropped_samples	4658.570685	Dropped 1 samples	n/a	n/a	n/a	n/a	n/a	n/a	n/a	1	UoHDataOffsetStream
546.414768	1.701006	nback_2	4659.364450	Steps:2 KeyPress:False Matched:False	1	n/a	2	False	False	n/a	n/a	n/a	n-backMarkers
546.504796	0.000000	dropped_samples	4659.454478	Dropped 1 samples	n/a	n/a	n/a	n/a	n/a	n/a	n/a	1	UoHDataOffsetStream
548.115016	1.701006	nback_2	4661.064698	Steps:2 KeyPress:False Matched:False	1	n/a	2	False	False	n/a	n/a	n/a	n-backMarkers
549.816289	1.701006	nback_2	4662.765971	Steps:2 KeyPress:True Matched:False	0	n/a	2	True	False	n/a	n/a	n/a	n-backMarkers
551.517732	1.701006	nback_2	4664.467414	Steps:2 KeyPress:False Matched:False	1	n/a	2	False	False	n/a	n/a	n/a	n-backMarkers
551.954008	0.000000	dropped_samples	4664.903690	Dropped 1 samples	n/a	n/a	n/a	n/a	n/a	n/a	n/a	1	UoHDataOffsetStream
553.218842	1.701006	nback_2	4666.168524	Steps:2 KeyPress:False Matched:False	1	n/a	2	False	False	n/a	n/a	n/a	n-backMarkers
554.522353	0.000000	dropped_samples	4667.472035	Dropped 3 samples	n/a	n/a	n/a	n/a	n/a	n/a	n/a	3	UoHDataOffsetStream
554.920763	1.701006	nback_2	4667.870445	Steps:2 KeyPress:True Matched:False	0	n/a	2	True	False	n/a	n/a	n/a	n-backMarkers
556.620946	1.701006	nback_2	4669.570628	Steps:2 KeyPress:False Matched:False	1	n/a	2	False	False	n/a	n/a	n/a	n-backMarkers
557.500897	0.000000	dropped_samples	4670.450579	Dropped 3 samples	n/a	n/a	n/a	n/a	n/a	n/a	n/a	3	UoHDataOffsetStream
558.322055	1.701006	nback_2	4671.271737	Steps:2 KeyPress:False Matched:False	1	n/a	2	False	False	n/a	n/a	n/a	n-backMarkers
559.854406	0.000000	dropped_samples	4672.804088	Dropped 1 samples	n/a	n/a	n/a	n/a	n/a	n/a	n/a	1	UoHDataOffsetStream
560.022901	1.701006	nback_2	4672.972583	Steps:2 KeyPress:True Matched:False	0	n/a	2	True	False	n/a	n/a	n/a	n-backMarkers
561.723929	1.701006	nback_2	4674.673611	Steps:2 KeyPress:False Matched:True	0	n/a	2	False	True	n/a	n/a	n/a	n-backMarkers
562.539991	0.000000	dropped_samples	4675.489673	Dropped 1 samples	n/a	n/a	n/a	n/a	n/a	n/a	n/a	1	UoHDataOffsetStream
563.425348	1.701006	nback_2	4676.375030	Steps:2 KeyPress:False Matched:False	1	n/a	2	False	False	n/a	n/a	n/a	n-backMarkers
565.126094	1.701006	nback_2	4678.075776	Steps:2 KeyPress:False Matched:False	1	n/a	2	False	False	n/a	n/a	n/a	n-backMarkers
565.249867	0.000000	dropped_samples	4678.199549	Dropped 2 samples	n/a	n/a	n/a	n/a	n/a	n/a	n/a	2	UoHDataOffsetStream
565.972599	0.000000	dropped_samples	4678.922282	Dropped 3 samples	n/a	n/a	n/a	n/a	n/a	n/a	n/a	3	UoHDataOffsetStream
566.309536	0.000000	dropped_samples	4679.259218	Dropped 1 samples	n/a	n/a	n/a	n/a	n/a	n/a	n/a	1	UoHDataOffsetStream
566.827838	1.701006	nback_2	4679.777520	Steps:2 KeyPress:True Matched:False	0	n/a	2	True	False	n/a	n/a	n/a	n-backMarkers
567.198162	0.000000	dropped_samples	4680.147844	Dropped 1 samples	n/a	n/a	n/a	n/a	n/a	n/a	n/a	1	UoHDataOffsetStream
568.528476	1.701006	nback_2	4681.478158	Steps:2 KeyPress:False Matched:False	1	n/a	2	False	False	n/a	n/a	n/a	n-backMarkers
569.668873	0.000000	dropped_samples	4682.618555	Dropped 1 samples	n/a	n/a	n/a	n/a	n/a	n/a	n/a	1	UoHDataOffsetStream
570.228797	1.701006	nback_2	4683.178479	Steps:2 KeyPress:False Matched:False	1	n/a	2	False	False	n/a	n/a	n/a	n-backMarkers
571.929834	1.701006	nback_2	4684.879516	Steps:2 KeyPress:True Matched:False	0	n/a	2	True	False	n/a	n/a	n/a	n-backMarkers
573.630547	1.701006	nback_2	4686.580229	Steps:2 KeyPress:False Matched:True	0	n/a	2	False	True	n/a	n/a	n/a	n-backMarkers
575.331493	1.701006	nback_2	4688.281175	Steps:2 KeyPress:False Matched:False	1	n/a	2	False	False	n/a	n/a	n/a	n-backMarkers
577.032186	1.701006	nback_2	4689.981868	Steps:2 KeyPress:False Matched:True	0	n/a	2	False	True	n/a	n/a	n/a	n-backMarkers
577.950162	0.000000	dropped_samples	4690.899844	Dropped 1 samples	n/a	n/a	n/a	n/a	n/a	n/a	n/a	1	UoHDataOffsetStream
578.733743	1.701006	nback_2	4691.683425	Steps:2 KeyPress:False Matched:False	1	n/a	2	False	False	n/a	n/a	n/a	n-backMarkers
579.698186	0.000000	dropped_samples	4692.647868	Dropped 1 samples	n/a	n/a	n/a	n/a	n/a	n/a	n/a	1	UoHDataOffsetStream
580.434531	1.701006	nback_2	4693.384213	Steps:2 KeyPress:False Matched:False	1	n/a	2	False	False	n/a	n/a	n/a	n-backMarkers
581.714802	0.000000	dropped_samples	4694.664484	Dropped 1 samples	n/a	n/a	n/a	n/a	n/a	n/a	n/a	1	UoHDataOffsetStream
582.135700	1.701006	nback_2	4695.085382	Steps:2 KeyPress:True Matched:False	0	n/a	2	True	False	n/a	n/a	n/a	n-backMarkers
583.228444	0.000000	dropped_samples	4696.178126	Dropped 1 samples	n/a	n/a	n/a	n/a	n/a	n/a	n/a	1	UoHDataOffsetStream
583.835742	1.701006	nback_2	4696.785424	Steps:2 KeyPress:False Matched:False	1	n/a	2	False	False	n/a	n/a	n/a	n-backMarkers
585.535924	1.701006	nback_2	4698.485606	Steps:2 KeyPress:False Matched:False	1	n/a	2	False	False	n/a	n/a	n/a	n-backMarkers
586.709894	0.000000	dropped_samples	4699.659576	Dropped 1 samples	n/a	n/a	n/a	n/a	n/a	n/a	n/a	1	UoHDataOffsetStream
587.236671	1.701006	nback_2	4700.186353	Steps:2 KeyPress:False Matched:False	1	n/a	2	False	False	n/a	n/a	n/a	n-backMarkers
588.937699	1.701006	nback_2	4701.887381	Steps:2 KeyPress:False Matched:False	1	n/a	2	False	False	n/a	n/a	n/a	n-backMarkers
589.922803	0.000000	dropped_samples	4702.872485	Dropped 1 samples	n/a	n/a	n/a	n/a	n/a	n/a	n/a	1	UoHDataOffsetStream
590.638324	1.701006	nback_2	4703.588006	Steps:2 KeyPress:False Matched:False	1	n/a	2	False	False	n/a	n/a	n/a	n-backMarkers
592.338755	1.701006	nback_2	4705.288437	Steps:2 KeyPress:True Matched:False	0	n/a	2	True	False	n/a	n/a	n/a	n-backMarkers
592.852487	0.000000	dropped_samples	4705.802169	Dropped 1 samples	n/a	n/a	n/a	n/a	n/a	n/a	n/a	1	UoHDataOffsetStream
593.790016	0.000000	dropped_samples	4706.739698	Dropped 1 samples	n/a	n/a	n/a	n/a	n/a	n/a	n/a	1	UoHDataOffsetStream
594.038804	1.701006	nback_2	4706.988486	Steps:2 KeyPress:False Matched:True	0	n/a	2	False	True	n/a	n/a	n/a	n-backMarkers
595.739090	1.701006	nback_2	4708.688772	Steps:2 KeyPress:False Matched:False	1	n/a	2	False	False	n/a	n/a	n/a	n-backMarkers
597.440826	1.701006	nback_2	4710.390508	Steps:2 KeyPress:False Matched:True	0	n/a	2	False	True	n/a	n/a	n/a	n-backMarkers
598.995075	0.000000	dropped_samples	4711.944758	Dropped 1 samples	n/a	n/a	n/a	n/a	n/a	n/a	n/a	1	UoHDataOffsetStream
599.141671	1.701006	nback_2	4712.091353	Steps:2 KeyPress:False Matched:False	1	n/a	2	False	False	n/a	n/a	n/a	n-backMarkers
600.842810	1.701006	nback_2	4713.792492	Steps:2 KeyPress:False Matched:False	1	n/a	2	False	False	n/a	n/a	n/a	n-backMarkers
602.543288	1.701006	nback_2	4715.492970	Steps:2 KeyPress:False Matched:False	1	n/a	2	False	False	n/a	n/a	n/a	n-backMarkers
603.726521	0.000000	dropped_samples	4716.676203	Dropped 1 samples	n/a	n/a	n/a	n/a	n/a	n/a	n/a	1	UoHDataOffsetStream
604.244679	1.701006	nback_2	4717.194361	Steps:2 KeyPress:False Matched:False	1	n/a	2	False	False	n/a	n/a	n/a	n-backMarkers
604.517544	0.000000	dropped_samples	4717.467226	Dropped 1 samples	n/a	n/a	n/a	n/a	n/a	n/a	n/a	1	UoHDataOffsetStream
605.945598	1.701006	nback_2	4718.895280	Steps:2 KeyPress:False Matched:True	0	n/a	2	False	True	n/a	n/a	n/a	n-backMarkers
607.646768	1.701006	nback_2	4720.596450	Steps:2 KeyPress:True Matched:False	0	n/a	2	True	False	n/a	n/a	n/a	n-backMarkers
609.195265	0.000000	dropped_samples	4722.144947	Dropped 1 samples	n/a	n/a	n/a	n/a	n/a	n/a	n/a	1	UoHDataOffsetStream
609.348018	1.701006	nback_2	4722.297700	Steps:2 KeyPress:False Matched:False	1	n/a	2	False	False	n/a	n/a	n/a	n-backMarkers
610.518533	0.000000	dropped_samples	4723.468216	Dropped 3 samples	n/a	n/a	n/a	n/a	n/a	n/a	n/a	3	UoHDataOffsetStream
611.048712	1.701006	nback_2	4723.998394	Steps:2 KeyPress:False Matched:False	1	n/a	2	False	False	n/a	n/a	n/a	n-backMarkers
611.236297	0.000000	dropped_samples	4724.185979	Dropped 1 samples	n/a	n/a	n/a	n/a	n/a	n/a	n/a	1	UoHDataOffsetStream
611.812479	0.000000	dropped_samples	4724.762161	Dropped 1 samples	n/a	n/a	n/a	n/a	n/a	n/a	n/a	1	UoHDataOffsetStream
612.652314	0.000000	dropped_samples	4725.601996	Dropped 1 samples	n/a	n/a	n/a	n/a	n/a	n/a	n/a	1	UoHDataOffsetStream
612.749721	1.701006	nback_2	4725.699403	Steps:2 KeyPress:False Matched:False	1	n/a	2	False	False	n/a	n/a	n/a	n-backMarkers
614.449815	1.701006	nback_2	4727.399497	Steps:2 KeyPress:True Matched:False	0	n/a	2	True	False	n/a	n/a	n/a	n-backMarkers
616.150678	1.701006	nback_2	4729.100360	Steps:2 KeyPress:False Matched:False	1	n/a	2	False	False	n/a	n/a	n/a	n-backMarkers
616.207030	0.000000	dropped_samples	4729.156712	Dropped 1 samples	n/a	n/a	n/a	n/a	n/a	n/a	n/a	1	UoHDataOffsetStream
617.850849	1.701006	nback_2	4730.800531	Steps:2 KeyPress:False Matched:False	1	n/a	2	False	False	n/a	n/a	n/a	n-backMarkers
619.551444	1.701006	nback_2	4732.501126	Steps:2 KeyPress:False Matched:False	1	n/a	2	False	False	n/a	n/a	n/a	n-backMarkers
621.252709	1.701006	nback_2	4734.202391	Steps:2 KeyPress:False Matched:False	1	n/a	2	False	False	n/a	n/a	n/a	n-backMarkers
621.314450	0.000000	dropped_samples	4734.264132	Dropped 1 samples	n/a	n/a	n/a	n/a	n/a	n/a	n/a	1	UoHDataOffsetStream
622.953816	1.701006	nback_2	4735.903498	Steps:2 KeyPress:False Matched:False	1	n/a	2	False	False	n/a	n/a	n/a	n-backMarkers
624.655608	1.701006	nback_2	4737.605290	Steps:2 KeyPress:False Matched:True	0	n/a	2	False	True	n/a	n/a	n/a	n-backMarkers
625.586955	0.000000	dropped_samples	4738.536637	Dropped 3 samples	n/a	n/a	n/a	n/a	n/a	n/a	n/a	3	UoHDataOffsetStream
626.356667	1.701006	nback_2	4739.306349	Steps:2 KeyPress:False Matched:False	1	n/a	2	False	False	n/a	n/a	n/a	n-backMarkers
627.149556	0.000000	dropped_samples	4740.099238	Dropped 1 samples	n/a	n/a	n/a	n/a	n/a	n/a	n/a	1	UoHDataOffsetStream
627.940409	0.000000	dropped_samples	4740.890091	Dropped 1 samples	n/a	n/a	n/a	n/a	n/a	n/a	n/a	1	UoHDataOffsetStream
633.794954	0.000000	dropped_samples	4746.744636	Dropped 1 samples	n/a	n/a	n/a	n/a	n/a	n/a	n/a	1	UoHDataOffsetStream
635.050222	1.701006	nback_3	4747.999904	Steps:3 KeyPress:False Matched:False	1	n/a	3	False	False	n/a	n/a	n/a	n-backMarkers
635.210915	0.000000	dropped_samples	4748.160597	Dropped 1 samples	n/a	n/a	n/a	n/a	n/a	n/a	n/a	1	UoHDataOffsetStream
636.750650	1.701006	nback_3	4749.700332	Steps:3 KeyPress:False Matched:False	1	n/a	3	False	False	n/a	n/a	n/a	n-backMarkers
637.110343	0.000000	dropped_samples	4750.060025	Dropped 1 samples	n/a	n/a	n/a	n/a	n/a	n/a	n/a	1	UoHDataOffsetStream
638.306676	0.000000	dropped_samples	4751.256358	Dropped 3 samples	n/a	n/a	n/a	n/a	n/a	n/a	n/a	3	UoHDataOffsetStream
638.450710	1.701006	nback_3	4751.400392	Steps:3 KeyPress:False Matched:False	1	n/a	3	False	False	n/a	n/a	n/a	n-backMarkers
638.956086	0.000000	dropped_samples	4751.905768	Dropped 1 samples	n/a	n/a	n/a	n/a	n/a	n/a	n/a	1	UoHDataOffsetStream
639.507830	0.000000	dropped_samples	4752.457512	Dropped 2 samples	n/a	n/a	n/a	n/a	n/a	n/a	n/a	2	UoHDataOffsetStream
640.151681	1.701006	nback_3	4753.101363	Steps:3 KeyPress:False Matched:False	1	n/a	3	False	False	n/a	n/a	n/a	n-backMarkers
641.573306	0.000000	dropped_samples	4754.522988	Dropped 3 samples	n/a	n/a	n/a	n/a	n/a	n/a	n/a	3	UoHDataOffsetStream
641.852677	1.701006	nback_3	4754.802359	Steps:3 KeyPress:True Matched:False	0	n/a	3	True	False	n/a	n/a	n/a	n-backMarkers
642.461936	0.000000	dropped_samples	4755.411619	Dropped 1 samples	n/a	n/a	n/a	n/a	n/a	n/a	n/a	1	UoHDataOffsetStream
643.554117	1.701006	nback_3	4756.503799	Steps:3 KeyPress:True Matched:False	0	n/a	3	True	False	n/a	n/a	n/a	n-backMarkers
643.574742	0.000000	dropped_samples	4756.524424	Dropped 1 samples	n/a	n/a	n/a	n/a	n/a	n/a	n/a	1	UoHDataOffsetStream
643.614323	0.000000	dropped_samples	4756.564005	Dropped 3 samples	n/a	n/a	n/a	n/a	n/a	n/a	n/a	3	UoHDataOffsetStream
644.043929	0.000000	dropped_samples	4756.993611	Dropped 4 samples	n/a	n/a	n/a	n/a	n/a	n/a	n/a	4	UoHDataOffsetStream
645.254815	1.701006	nback_3	4758.204497	Steps:3 KeyPress:False Matched:False	1	n/a	3	False	False	n/a	n/a	n/a	n-backMarkers
646.956063	1.701006	nback_3	4759.905745	Steps:3 KeyPress:False Matched:False	1	n/a	3	False	False	n/a	n/a	n/a	n-backMarkers
647.046920	0.000000	dropped_samples	4759.996602	Dropped 3 samples	n/a	n/a	n/a	n/a	n/a	n/a	n/a	3	UoHDataOffsetStream
647.667071	0.000000	dropped_samples	4760.616753	Dropped 1 samples	n/a	n/a	n/a	n/a	n/a	n/a	n/a	1	UoHDataOffsetStream
648.657534	1.701006	nback_3	4761.607216	Steps:3 KeyPress:False Matched:False	1	n/a	3	False	False	n/a	n/a	n/a	n-backMarkers
650.357635	1.701006	nback_3	4763.307317	Steps:3 KeyPress:True Matched:False	0	n/a	3	True	False	n/a	n/a	n/a	n-backMarkers
652.058717	1.701006	nback_3	4765.008399	Steps:3 KeyPress:False Matched:False	1	n/a	3	False	False	n/a	n/a	n/a	n-backMarkers
652.803746	0.000000	dropped_samples	4765.753429	Dropped 1 samples	n/a	n/a	n/a	n/a	n/a	n/a	n/a	1	UoHDataOffsetStream
653.165036	0.000000	dropped_samples	4766.114718	Dropped 3 samples	n/a	n/a	n/a	n/a	n/a	n/a	n/a	3	UoHDataOffsetStream
653.760515	1.701006	nback_3	4766.710197	Steps:3 KeyPress:False Matched:False	1	n/a	3	False	False	n/a	n/a	n/a	n-backMarkers
655.461545	1.701006	nback_3	4768.411227	Steps:3 KeyPress:False Matched:False	1	n/a	3	False	False	n/a	n/a	n/a	n-backMarkers
657.162519	1.701006	nback_3	4770.112201	Steps:3 KeyPress:True Matched:False	0	n/a	3	True	False	n/a	n/a	n/a	n-backMarkers
658.013705	0.000000	dropped_samples	4770.963387	Dropped 1 samples	n/a	n/a	n/a	n/a	n/a	n/a	n/a	1	UoHDataOffsetStream
658.862727	1.701006	nback_3	4771.812409	Steps:3 KeyPress:False Matched:True	0	n/a	3	False	True	n/a	n/a	n/a	n-backMarkers
660.391646	0.000000	dropped_samples	4773.341328	Dropped 1 samples	n/a	n/a	n/a	n/a	n/a	n/a	n/a	1	UoHDataOffsetStream
660.564570	1.701006	nback_3	4773.514252	Steps:3 KeyPress:False Matched:False	1	n/a	3	False	False	n/a	n/a	n/a	n-backMarkers
662.264968	1.701006	nback_3	4775.214650	Steps:3 KeyPress:True Matched:False	0	n/a	3	True	False	n/a	n/a	n/a	n-backMarkers
663.029316	0.000000	dropped_samples	4775.978998	Dropped 1 samples	n/a	n/a	n/a	n/a	n/a	n/a	n/a	1	UoHDataOffsetStream
663.628955	0.000000	dropped_samples	4776.578637	Dropped 3 samples	n/a	n/a	n/a	n/a	n/a	n/a	n/a	3	UoHDataOffsetStream
663.965625	1.701006	nback_3	4776.915307	Steps:3 KeyPress:False Matched:True	0	n/a	3	False	True	n/a	n/a	n/a	n-backMarkers
665.093790	0.000000	dropped_samples	4778.043472	Dropped 2 samples	n/a	n/a	n/a	n/a	n/a	n/a	n/a	2	UoHDataOffsetStream
665.665692	1.701006	nback_3	4778.615374	Steps:3 KeyPress:False Matched:False	1	n/a	3	False	False	n/a	n/a	n/a	n-backMarkers
666.895564	0.000000	dropped_samples	4779.845246	Dropped 3 samples	n/a	n/a	n/a	n/a	n/a	n/a	n/a	3	UoHDataOffsetStream
667.367533	1.701006	nback_3	4780.317215	Steps:3 KeyPress:False Matched:False	1	n/a	3	False	False	n/a	n/a	n/a	n-backMarkers
669.068710	1.701006	nback_3	4782.018392	Steps:3 KeyPress:True Matched:False	0	n/a	3	True	False	n/a	n/a	n/a	n-backMarkers
670.769618	1.701006	nback_3	4783.719300	Steps:3 KeyPress:False Matched:False	1	n/a	3	False	False	n/a	n/a	n/a	n-backMarkers
672.470587	1.701006	nback_3	4785.420269	Steps:3 KeyPress:False Matched:False	1	n/a	3	False	False	n/a	n/a	n/a	n-backMarkers
674.171480	1.701006	nback_3	4787.121162	Steps:3 KeyPress:False Matched:False	1	n/a	3	False	False	n/a	n/a	n/a	n-backMarkers
675.872614	1.701006	nback_3	4788.822296	Steps:3 KeyPress:False Matched:True	0	n/a	3	False	True	n/a	n/a	n/a	n-backMarkers
676.011793	0.000000	dropped_samples	4788.961475	Dropped 3 samples	n/a	n/a	n/a	n/a	n/a	n/a	n/a	3	UoHDataOffsetStream
677.573604	1.701006	nback_3	4790.523286	Steps:3 KeyPress:True Matched:False	0	n/a	3	True	False	n/a	n/a	n/a	n-backMarkers
679.205104	0.000000	dropped_samples	4792.154786	Dropped 1 samples	n/a	n/a	n/a	n/a	n/a	n/a	n/a	1	UoHDataOffsetStream
679.273963	1.701006	nback_3	4792.223645	Steps:3 KeyPress:False Matched:False	1	n/a	3	False	False	n/a	n/a	n/a	n-backMarkers
679.927779	0.000000	dropped_samples	4792.877461	Dropped 1 samples	n/a	n/a	n/a	n/a	n/a	n/a	n/a	1	UoHDataOffsetStream
680.235433	0.000000	dropped_samples	4793.185116	Dropped 1 samples	n/a	n/a	n/a	n/a	n/a	n/a	n/a	1	UoHDataOffsetStream
680.975935	1.701006	nback_3	4793.925617	Steps:3 KeyPress:False Matched:True	0	n/a	3	False	True	n/a	n/a	n/a	n-backMarkers
682.676622	1.701006	nback_3	4795.626304	Steps:3 KeyPress:False Matched:False	1	n/a	3	False	False	n/a	n/a	n/a	n-backMarkers
684.377117	1.701006	nback_3	4797.326799	Steps:3 KeyPress:False Matched:False	1	n/a	3	False	False	n/a	n/a	n/a	n-backMarkers
685.445323	0.000000	dropped_samples	4798.395005	Dropped 1 samples	n/a	n/a	n/a	n/a	n/a	n/a	n/a	1	UoHDataOffsetStream
686.077556	1.701006	nback_3	4799.027238	Steps:3 KeyPress:False Matched:False	1	n/a	3	False	False	n/a	n/a	n/a	n-backMarkers
686.886844	0.000000	dropped_samples	4799.836527	Dropped 1 samples	n/a	n/a	n/a	n/a	n/a	n/a	n/a	1	UoHDataOffsetStream
687.778639	1.701006	nback_3	4800.728321	Steps:3 KeyPress:True Matched:False	0	n/a	3	True	False	n/a	n/a	n/a	n-backMarkers
689.214925	0.000000	dropped_samples	4802.164607	Dropped 1 samples	n/a	n/a	n/a	n/a	n/a	n/a	n/a	1	UoHDataOffsetStream
689.479730	1.701006	nback_3	4802.429412	Steps:3 KeyPress:False Matched:False	1	n/a	3	False	False	n/a	n/a	n/a	n-backMarkers
691.180155	1.701006	nback_3	4804.129837	Steps:3 KeyPress:False Matched:True	0	n/a	3	False	True	n/a	n/a	n/a	n-backMarkers
692.164147	0.000000	dropped_samples	4805.113829	Dropped 1 samples	n/a	n/a	n/a	n/a	n/a	n/a	n/a	1	UoHDataOffsetStream
692.335047	0.000000	dropped_samples	4805.284729	Dropped 1 samples	n/a	n/a	n/a	n/a	n/a	n/a	n/a	1	UoHDataOffsetStream
692.881297	1.701006	nback_3	4805.830979	Steps:3 KeyPress:False Matched:False	1	n/a	3	False	False	n/a	n/a	n/a	n-backMarkers
693.101643	0.000000	dropped_samples	4806.051325	Dropped 1 samples	n/a	n/a	n/a	n/a	n/a	n/a	n/a	1	UoHDataOffsetStream
694.582600	1.701006	nback_3	4807.532282	Steps:3 KeyPress:False Matched:False	1	n/a	3	False	False	n/a	n/a	n/a	n-backMarkers
695.836017	0.000000	dropped_samples	4808.785699	Dropped 1 samples	n/a	n/a	n/a	n/a	n/a	n/a	n/a	1	UoHDataOffsetStream
696.283531	1.701006	nback_3	4809.233213	Steps:3 KeyPress:False Matched:False	1	n/a	3	False	False	n/a	n/a	n/a	n-backMarkers
697.983948	1.701006	nback_3	4810.933630	Steps:3 KeyPress:False Matched:False	1	n/a	3	False	False	n/a	n/a	n/a	n-backMarkers
699.685573	1.701006	nback_3	4812.635255	Steps:3 KeyPress:False Matched:False	1	n/a	3	False	False	n/a	n/a	n/a	n-backMarkers
700.230550	0.000000	dropped_samples	4813.180232	Dropped 1 samples	n/a	n/a	n/a	n/a	n/a	n/a	n/a	1	UoHDataOffsetStream
700.372162	0.000000	dropped_samples	4813.321844	Dropped 1 samples	n/a	n/a	n/a	n/a	n/a	n/a	n/a	1	UoHDataOffsetStream
701.386684	1.701006	nback_3	4814.336366	Steps:3 KeyPress:True Matched:False	0	n/a	3	True	False	n/a	n/a	n/a	n-backMarkers
702.247157	0.000000	dropped_samples	4815.196839	Dropped 3 samples	n/a	n/a	n/a	n/a	n/a	n/a	n/a	3	UoHDataOffsetStream
703.088581	1.701006	nback_3	4816.038263	Steps:3 KeyPress:False Matched:True	0	n/a	3	False	True	n/a	n/a	n/a	n-backMarkers
704.789554	1.701006	nback_3	4817.739236	Steps:3 KeyPress:False Matched:False	1	n/a	3	False	False	n/a	n/a	n/a	n-backMarkers
706.491230	1.701006	nback_3	4819.440912	Steps:3 KeyPress:False Matched:False	1	n/a	3	False	False	n/a	n/a	n/a	n-backMarkers
708.192456	1.701006	nback_3	4821.142138	Steps:3 KeyPress:False Matched:False	1	n/a	3	False	False	n/a	n/a	n/a	n-backMarkers
709.302795	0.000000	dropped_samples	4822.252477	Dropped 1 samples	n/a	n/a	n/a	n/a	n/a	n/a	n/a	1	UoHDataOffsetStream
709.893590	1.701006	nback_3	4822.843272	Steps:3 KeyPress:True Matched:False	0	n/a	3	True	False	n/a	n/a	n/a	n-backMarkers
711.594888	1.701006	nback_3	4824.544570	Steps:3 KeyPress:False Matched:False	1	n/a	3	False	False	n/a	n/a	n/a	n-backMarkers
713.294990	1.701006	nback_3	4826.244672	Steps:3 KeyPress:False Matched:False	1	n/a	3	False	False	n/a	n/a	n/a	n-backMarkers
713.765761	0.000000	dropped_samples	4826.715443	Dropped 1 samples	n/a	n/a	n/a	n/a	n/a	n/a	n/a	1	UoHDataOffsetStream
714.244248	0.000000	dropped_samples	4827.193930	Dropped 3 samples	n/a	n/a	n/a	n/a	n/a	n/a	n/a	3	UoHDataOffsetStream
714.996519	1.701006	nback_3	4827.946201	Steps:3 KeyPress:False Matched:False	1	n/a	3	False	False	n/a	n/a	n/a	n-backMarkers
716.622164	0.000000	dropped_samples	4829.571846	Dropped 2 samples	n/a	n/a	n/a	n/a	n/a	n/a	n/a	2	UoHDataOffsetStream
716.697529	1.701006	nback_3	4829.647211	Steps:3 KeyPress:False Matched:False	1	n/a	3	False	False	n/a	n/a	n/a	n-backMarkers
718.398520	1.701006	nback_3	4831.348202	Steps:3 KeyPress:False Matched:False	1	n/a	3	False	False	n/a	n/a	n/a	n-backMarkers
720.099393	1.701006	nback_3	4833.049075	Steps:3 KeyPress:False Matched:False	1	n/a	3	False	False	n/a	n/a	n/a	n-backMarkers
721.255927	0.000000	dropped_samples	4834.205609	Dropped 1 samples	n/a	n/a	n/a	n/a	n/a	n/a	n/a	1	UoHDataOffsetStream
721.800126	1.701006	nback_3	4834.749808	Steps:3 KeyPress:False Matched:False	1	n/a	3	False	False	n/a	n/a	n/a	n-backMarkers
723.463025	0.000000	dropped_samples	4836.412707	Dropped 2 samples	n/a	n/a	n/a	n/a	n/a	n/a	n/a	2	UoHDataOffsetStream
723.500618	1.701006	nback_3	4836.450300	Steps:3 KeyPress:True Matched:False	0	n/a	3	True	False	n/a	n/a	n/a	n-backMarkers
725.201654	1.701006	nback_3	4838.151336	Steps:3 KeyPress:False Matched:True	0	n/a	3	False	True	n/a	n/a	n/a	n-backMarkers
726.055759	0.000000	dropped_samples	4839.005441	Dropped 3 samples	n/a	n/a	n/a	n/a	n/a	n/a	n/a	3	UoHDataOffsetStream
726.901728	1.701006	nback_3	4839.851410	Steps:3 KeyPress:False Matched:False	1	n/a	3	False	False	n/a	n/a	n/a	n-backMarkers
728.602538	1.701006	nback_3	4841.552220	Steps:3 KeyPress:False Matched:False	1	n/a	3	False	False	n/a	n/a	n/a	n-backMarkers
730.303378	1.701006	nback_3	4843.253060	Steps:3 KeyPress:False Matched:False	1	n/a	3	False	False	n/a	n/a	n/a	n-backMarkers
732.004636	1.701006	nback_3	4844.954318	Steps:3 KeyPress:False Matched:False	1	n/a	3	False	False	n/a	n/a	n/a	n-backMarkers
732.559693	0.000000	dropped_samples	4845.509375	Dropped 1 samples	n/a	n/a	n/a	n/a	n/a	n/a	n/a	1	UoHDataOffsetStream
733.326310	0.000000	dropped_samples	4846.275993	Dropped 2 samples	n/a	n/a	n/a	n/a	n/a	n/a	n/a	2	UoHDataOffsetStream
733.705090	1.701006	nback_3	4846.654772	Steps:3 KeyPress:False Matched:False	1	n/a	3	False	False	n/a	n/a	n/a	n-backMarkers
734.576297	0.000000	dropped_samples	4847.525980	Dropped 1 samples	n/a	n/a	n/a	n/a	n/a	n/a	n/a	1	UoHDataOffsetStream
735.406530	1.701006	nback_3	4848.356212	Steps:3 KeyPress:False Matched:False	1	n/a	3	False	False	n/a	n/a	n/a	n-backMarkers
737.108350	1.701006	nback_3	4850.058032	Steps:3 KeyPress:False Matched:False	1	n/a	3	False	False	n/a	n/a	n/a	n-backMarkers
738.808965	1.701006	nback_3	4851.758647	Steps:3 KeyPress:True Matched:False	0	n/a	3	True	False	n/a	n/a	n/a	n-backMarkers
740.509486	1.701006	nback_3	4853.459168	Steps:3 KeyPress:False Matched:True	0	n/a	3	False	True	n/a	n/a	n/a	n-backMarkers
741.368312	0.000000	dropped_samples	4854.317994	Dropped 1 samples	n/a	n/a	n/a	n/a	n/a	n/a	n/a	1	UoHDataOffsetStream
742.211217	1.701006	nback_3	4855.160899	Steps:3 KeyPress:False Matched:False	1	n/a	3	False	False	n/a	n/a	n/a	n-backMarkers
743.912482	1.701006	nback_3	4856.862164	Steps:3 KeyPress:False Matched:False	1	n/a	3	False	False	n/a	n/a	n/a	n-backMarkers
744.991370	0.000000	dropped_samples	4857.941052	Dropped 1 samples	n/a	n/a	n/a	n/a	n/a	n/a	n/a	1	UoHDataOffsetStream
745.613549	1.701006	nback_3	4858.563231	Steps:3 KeyPress:False Matched:False	1	n/a	3	False	False	n/a	n/a	n/a	n-backMarkers
746.192738	0.000000	dropped_samples	4859.142420	Dropped 3 samples	n/a	n/a	n/a	n/a	n/a	n/a	n/a	3	UoHDataOffsetStream
747.314421	1.701006	nback_3	4860.264103	Steps:3 KeyPress:False Matched:False	1	n/a	3	False	False	n/a	n/a	n/a	n-backMarkers
749.015844	1.701006	nback_3	4861.965526	Steps:3 KeyPress:False Matched:True	0	n/a	3	False	True	n/a	n/a	n/a	n-backMarkers
749.606944	0.000000	dropped_samples	4862.556626	Dropped 4 samples	n/a	n/a	n/a	n/a	n/a	n/a	n/a	4	UoHDataOffsetStream
750.655442	0.000000	dropped_samples	4863.605124	Dropped 1 samples	n/a	n/a	n/a	n/a	n/a	n/a	n/a	1	UoHDataOffsetStream
750.717029	1.701006	nback_3	4863.666711	Steps:3 KeyPress:False Matched:False	1	n/a	3	False	False	n/a	n/a	n/a	n-backMarkers
751.612498	0.000000	dropped_samples	4864.562180	Dropped 2 samples	n/a	n/a	n/a	n/a	n/a	n/a	n/a	2	UoHDataOffsetStream
752.418314	1.701006	nback_3	4865.367996	Steps:3 KeyPress:False Matched:False	1	n/a	3	False	False	n/a	n/a	n/a	n-backMarkers
754.118741	1.701006	nback_3	4867.068423	Steps:3 KeyPress:False Matched:False	1	n/a	3	False	False	n/a	n/a	n/a	n-backMarkers
754.205242	0.000000	dropped_samples	4867.154924	Dropped 3 samples	n/a	n/a	n/a	n/a	n/a	n/a	n/a	3	UoHDataOffsetStream
755.819401	1.701006	nback_3	4868.769083	Steps:3 KeyPress:False Matched:False	1	n/a	3	False	False	n/a	n/a	n/a	n-backMarkers
755.860512	0.000000	dropped_samples	4868.810194	Dropped 1 samples	n/a	n/a	n/a	n/a	n/a	n/a	n/a	1	UoHDataOffsetStream
757.520411	1.701006	nback_3	4870.470093	Steps:3 KeyPress:False Matched:False	1	n/a	3	False	False	n/a	n/a	n/a	n-backMarkers
759.221440	1.701006	nback_3	4872.171122	Steps:3 KeyPress:False Matched:False	1	n/a	3	False	False	n/a	n/a	n/a	n-backMarkers
759.581172	0.000000	dropped_samples	4872.530854	Dropped 1 samples	n/a	n/a	n/a	n/a	n/a	n/a	n/a	1	UoHDataOffsetStream
759.893709	0.000000	dropped_samples	4872.843391	Dropped 3 samples	n/a	n/a	n/a	n/a	n/a	n/a	n/a	3	UoHDataOffsetStream
760.922389	1.701006	nback_3	4873.872071	Steps:3 KeyPress:True Matched:True	1	n/a	3	True	True	n/a	n/a	n/a	n-backMarkers
761.480806	0.000000	dropped_samples	4874.430488	Dropped 3 samples	n/a	n/a	n/a	n/a	n/a	n/a	n/a	3	UoHDataOffsetStream
762.624279	1.701006	nback_3	4875.573961	Steps:3 KeyPress:False Matched:False	1	n/a	3	False	False	n/a	n/a	n/a	n-backMarkers
764.325169	1.701006	nback_3	4877.274851	Steps:3 KeyPress:False Matched:False	1	n/a	3	False	False	n/a	n/a	n/a	n-backMarkers
765.845893	0.000000	dropped_samples	4878.795575	Dropped 1 samples	n/a	n/a	n/a	n/a	n/a	n/a	n/a	1	UoHDataOffsetStream
766.025326	1.701006	nback_3	4878.975008	Steps:3 KeyPress:False Matched:False	1	n/a	3	False	False	n/a	n/a	n/a	n-backMarkers
767.623204	0.000000	dropped_samples	4880.572886	Dropped 3 samples	n/a	n/a	n/a	n/a	n/a	n/a	n/a	3	UoHDataOffsetStream
767.726950	1.701006	nback_3	4880.676632	Steps:3 KeyPress:False Matched:False	1	n/a	3	False	False	n/a	n/a	n/a	n-backMarkers
769.427647	1.701006	nback_3	4882.377329	Steps:3 KeyPress:False Matched:False	1	n/a	3	False	False	n/a	n/a	n/a	n-backMarkers
770.572444	0.000000	dropped_samples	4883.522126	Dropped 1 samples	n/a	n/a	n/a	n/a	n/a	n/a	n/a	1	UoHDataOffsetStream
771.129091	1.701006	nback_3	4884.078773	Steps:3 KeyPress:False Matched:False	1	n/a	3	False	False	n/a	n/a	n/a	n-backMarkers
772.637866	0.000000	dropped_samples	4885.587548	Dropped 3 samples	n/a	n/a	n/a	n/a	n/a	n/a	n/a	3	UoHDataOffsetStream
772.830400	1.701006	nback_3	4885.780082	Steps:3 KeyPress:False Matched:True	0	n/a	3	False	True	n/a	n/a	n/a	n-backMarkers
772.852730	0.000000	dropped_samples	4885.802412	Dropped 2 samples	n/a	n/a	n/a	n/a	n/a	n/a	n/a	2	UoHDataOffsetStream
773.692563	0.000000	dropped_samples	4886.642245	Dropped 1 samples	n/a	n/a	n/a	n/a	n/a	n/a	n/a	1	UoHDataOffsetStream
774.531108	1.701006	nback_3	4887.480790	Steps:3 KeyPress:False Matched:False	1	n/a	3	False	False	n/a	n/a	n/a	n-backMarkers
775.623188	0.000000	dropped_samples	4888.572870	Dropped 2 samples	n/a	n/a	n/a	n/a	n/a	n/a	n/a	2	UoHDataOffsetStream
775.855655	0.000000	dropped_samples	4888.805337	Dropped 1 samples	n/a	n/a	n/a	n/a	n/a	n/a	n/a	1	UoHDataOffsetStream
776.232379	1.701006	nback_3	4889.182061	Steps:3 KeyPress:False Matched:False	1	n/a	3	False	False	n/a	n/a	n/a	n-backMarkers
777.934297	1.701006	nback_3	4890.883979	Steps:3 KeyPress:False Matched:False	1	n/a	3	False	False	n/a	n/a	n/a	n-backMarkers
779.634953	1.701006	nback_3	4892.584635	Steps:3 KeyPress:False Matched:False	1	n/a	3	False	False	n/a	n/a	n/a	n-backMarkers
781.335288	1.701006	nback_3	4894.284970	Steps:3 KeyPress:False Matched:False	1	n/a	3	False	False	n/a	n/a	n/a	n-backMarkers
782.140735	0.000000	dropped_samples	4895.090417	Dropped 1 samples	n/a	n/a	n/a	n/a	n/a	n/a	n/a	1	UoHDataOffsetStream
783.035616	1.701006	nback_3	4895.985298	Steps:3 KeyPress:True Matched:False	0	n/a	3	True	False	n/a	n/a	n/a	n-backMarkers
783.345173	0.000000	dropped_samples	4896.294855	Dropped 1 samples	n/a	n/a	n/a	n/a	n/a	n/a	n/a	1	UoHDataOffsetStream
783.739755	0.000000	dropped_samples	4896.689438	Dropped 1 samples	n/a	n/a	n/a	n/a	n/a	n/a	n/a	1	UoHDataOffsetStream
783.787934	0.000000	dropped_samples	4896.737616	Dropped 8 samples	n/a	n/a	n/a	n/a	n/a	n/a	n/a	8	UoHDataOffsetStream
784.044702	0.000000	dropped_samples	4896.994384	Dropped 7 samples	n/a	n/a	n/a	n/a	n/a	n/a	n/a	7	UoHDataOffsetStream
784.737291	1.701006	nback_3	4897.686973	Steps:3 KeyPress:False Matched:True	0	n/a	3	False	True	n/a	n/a	n/a	n-backMarkers
784.879123	0.000000	dropped_samples	4897.828805	Dropped 1 samples	n/a	n/a	n/a	n/a	n/a	n/a	n/a	1	UoHDataOffsetStream
786.388541	0.000000	dropped_samples	4899.338223	Dropped 2 samples	n/a	n/a	n/a	n/a	n/a	n/a	n/a	2	UoHDataOffsetStream
786.438309	1.701006	nback_3	4899.387991	Steps:3 KeyPress:False Matched:False	1	n/a	3	False	False	n/a	n/a	n/a	n-backMarkers
786.577852	0.000000	dropped_samples	4899.527534	Dropped 3 samples	n/a	n/a	n/a	n/a	n/a	n/a	n/a	3	UoHDataOffsetStream
787.324965	0.000000	dropped_samples	4900.274647	Dropped 1 samples	n/a	n/a	n/a	n/a	n/a	n/a	n/a	1	UoHDataOffsetStream
787.471834	0.000000	dropped_samples	4900.421516	Dropped 1 samples	n/a	n/a	n/a	n/a	n/a	n/a	n/a	1	UoHDataOffsetStream
788.140051	1.701006	nback_3	4901.089733	Steps:3 KeyPress:False Matched:False	1	n/a	3	False	False	n/a	n/a	n/a	n-backMarkers
789.488485	0.000000	dropped_samples	4902.438167	Dropped 1 samples	n/a	n/a	n/a	n/a	n/a	n/a	n/a	1	UoHDataOffsetStream
789.841044	1.701006	nback_3	4902.790726	Steps:3 KeyPress:False Matched:True	0	n/a	3	False	True	n/a	n/a	n/a	n-backMarkers
790.709175	0.000000	dropped_samples	4903.658857	Dropped 1 samples	n/a	n/a	n/a	n/a	n/a	n/a	n/a	1	UoHDataOffsetStream
791.541376	1.701006	nback_3	4904.491058	Steps:3 KeyPress:False Matched:False	1	n/a	3	False	False	n/a	n/a	n/a	n-backMarkers
793.243492	1.701006	nback_3	4906.193174	Steps:3 KeyPress:False Matched:False	1	n/a	3	False	False	n/a	n/a	n/a	n-backMarkers
794.944244	1.701006	nback_3	4907.893926	Steps:3 KeyPress:False Matched:False	1	n/a	3	False	False	n/a	n/a	n/a	n-backMarkers
796.645370	1.701006	nback_3	4909.595052	Steps:3 KeyPress:False Matched:False	1	n/a	3	False	False	n/a	n/a	n/a	n-backMarkers
798.346467	1.701006	nback_3	4911.296149	Steps:3 KeyPress:False Matched:True	0	n/a	3	False	True	n/a	n/a	n/a	n-backMarkers
798.824448	0.000000	dropped_samples	4911.774130	Dropped 2 samples	n/a	n/a	n/a	n/a	n/a	n/a	n/a	2	UoHDataOffsetStream
798.990565	0.000000	dropped_samples	4911.940247	Dropped 3 samples	n/a	n/a	n/a	n/a	n/a	n/a	n/a	3	UoHDataOffsetStream
800.047241	1.701006	nback_3	4912.996923	Steps:3 KeyPress:False Matched:False	1	n/a	3	False	False	n/a	n/a	n/a	n-backMarkers
801.749004	1.701006	nback_3	4914.698686	Steps:3 KeyPress:False Matched:False	1	n/a	3	False	False	n/a	n/a	n/a	n-backMarkers
802.759944	0.000000	dropped_samples	4915.709626	Dropped 1 samples	n/a	n/a	n/a	n/a	n/a	n/a	n/a	1	UoHDataOffsetStream
803.449917	1.701006	nback_3	4916.399599	Steps:3 KeyPress:False Matched:False	1	n/a	3	False	False	n/a	n/a	n/a	n-backMarkers
806.260969	0.000000	dropped_samples	4919.210651	Dropped 1 samples	n/a	n/a	n/a	n/a	n/a	n/a	n/a	1	UoHDataOffsetStream
807.344946	0.000000	dropped_samples	4920.294628	Dropped 1 samples	n/a	n/a	n/a	n/a	n/a	n/a	n/a	1	UoHDataOffsetStream
811.783456	0.000000	dropped_samples	4924.733138	Dropped 1 samples	n/a	n/a	n/a	n/a	n/a	n/a	n/a	1	UoHDataOffsetStream
812.145176	1.701006	nback_4	4925.094858	Steps:4 KeyPress:False Matched:False	1	n/a	4	False	False	n/a	n/a	n/a	n-backMarkers
812.476752	0.000000	dropped_samples	4925.426434	Dropped 2 samples	n/a	n/a	n/a	n/a	n/a	n/a	n/a	2	UoHDataOffsetStream
813.707188	0.000000	dropped_samples	4926.656870	Dropped 1 samples	n/a	n/a	n/a	n/a	n/a	n/a	n/a	1	UoHDataOffsetStream
813.751237	0.000000	dropped_samples	4926.700919	Dropped 3 samples	n/a	n/a	n/a	n/a	n/a	n/a	n/a	3	UoHDataOffsetStream
813.846271	1.701006	nback_4	4926.795953	Steps:4 KeyPress:False Matched:True	0	n/a	4	False	True	n/a	n/a	n/a	n-backMarkers
815.020748	0.000000	dropped_samples	4927.970430	Dropped 1 samples	n/a	n/a	n/a	n/a	n/a	n/a	n/a	1	UoHDataOffsetStream
815.547279	1.701006	nback_4	4928.496961	Steps:4 KeyPress:False Matched:False	1	n/a	4	False	False	n/a	n/a	n/a	n-backMarkers
817.248266	1.701006	nback_4	4930.197948	Steps:4 KeyPress:False Matched:False	1	n/a	4	False	False	n/a	n/a	n/a	n-backMarkers
818.404534	0.000000	dropped_samples	4931.354216	Dropped 1 samples	n/a	n/a	n/a	n/a	n/a	n/a	n/a	1	UoHDataOffsetStream
818.949432	1.701006	nback_4	4931.899114	Steps:4 KeyPress:False Matched:True	0	n/a	4	False	True	n/a	n/a	n/a	n-backMarkers
820.651424	1.701006	nback_4	4933.601106	Steps:4 KeyPress:False Matched:False	1	n/a	4	False	False	n/a	n/a	n/a	n-backMarkers
821.119364	0.000000	dropped_samples	4934.069046	Dropped 1 samples	n/a	n/a	n/a	n/a	n/a	n/a	n/a	1	UoHDataOffsetStream
822.351744	1.701006	nback_4	4935.301426	Steps:4 KeyPress:False Matched:False	1	n/a	4	False	False	n/a	n/a	n/a	n-backMarkers
822.921126	0.000000	dropped_samples	4935.870808	Dropped 1 samples	n/a	n/a	n/a	n/a	n/a	n/a	n/a	1	UoHDataOffsetStream
824.051707	1.701006	nback_4	4937.001389	Steps:4 KeyPress:False Matched:False	1	n/a	4	False	False	n/a	n/a	n/a	n-backMarkers
825.269745	0.000000	dropped_samples	4938.219427	Dropped 3 samples	n/a	n/a	n/a	n/a	n/a	n/a	n/a	3	UoHDataOffsetStream
825.752690	1.701006	nback_4	4938.702372	Steps:4 KeyPress:False Matched:True	0	n/a	4	False	True	n/a	n/a	n/a	n-backMarkers
827.453738	1.701006	nback_4	4940.403420	Steps:4 KeyPress:False Matched:True	0	n/a	4	False	True	n/a	n/a	n/a	n-backMarkers
827.764867	0.000000	dropped_samples	4940.714549	Dropped 3 samples	n/a	n/a	n/a	n/a	n/a	n/a	n/a	3	UoHDataOffsetStream
829.154421	1.701006	nback_4	4942.104103	Steps:4 KeyPress:False Matched:False	1	n/a	4	False	False	n/a	n/a	n/a	n-backMarkers
830.855842	1.701006	nback_4	4943.805524	Steps:4 KeyPress:False Matched:False	1	n/a	4	False	False	n/a	n/a	n/a	n-backMarkers
832.557086	1.701006	nback_4	4945.506768	Steps:4 KeyPress:False Matched:False	1	n/a	4	False	False	n/a	n/a	n/a	n-backMarkers
834.257901	1.701006	nback_4	4947.207583	Steps:4 KeyPress:False Matched:True	0	n/a	4	False	True	n/a	n/a	n/a	n-backMarkers
835.421177	0.000000	dropped_samples	4948.370859	Dropped 3 samples	n/a	n/a	n/a	n/a	n/a	n/a	n/a	3	UoHDataOffsetStream
835.959180	1.701006	nback_4	4948.908862	Steps:4 KeyPress:False Matched:False	1	n/a	4	False	False	n/a	n/a	n/a	n-backMarkers
837.659356	1.701006	nback_4	4950.609038	Steps:4 KeyPress:False Matched:False	1	n/a	4	False	False	n/a	n/a	n/a	n-backMarkers
838.951435	0.000000	dropped_samples	4951.901117	Dropped 1 samples	n/a	n/a	n/a	n/a	n/a	n/a	n/a	1	UoHDataOffsetStream
839.361136	1.701006	nback_4	4952.310818	Steps:4 KeyPress:True Matched:True	1	n/a	4	True	True	n/a	n/a	n/a	n-backMarkers
839.552112	0.000000	dropped_samples	4952.501794	Dropped 2 samples	n/a	n/a	n/a	n/a	n/a	n/a	n/a	2	UoHDataOffsetStream
841.062082	1.701006	nback_4	4954.011764	Steps:4 KeyPress:False Matched:False	1	n/a	4	False	False	n/a	n/a	n/a	n-backMarkers
841.881361	0.000000	dropped_samples	4954.831043	Dropped 1 samples	n/a	n/a	n/a	n/a	n/a	n/a	n/a	1	UoHDataOffsetStream
842.763097	1.701006	nback_4	4955.712779	Steps:4 KeyPress:False Matched:False	1	n/a	4	False	False	n/a	n/a	n/a	n-backMarkers
844.464243	1.701006	nback_4	4957.413925	Steps:4 KeyPress:False Matched:False	1	n/a	4	False	False	n/a	n/a	n/a	n-backMarkers
846.080587	0.000000	dropped_samples	4959.030269	Dropped 3 samples	n/a	n/a	n/a	n/a	n/a	n/a	n/a	3	UoHDataOffsetStream
846.165086	1.701006	nback_4	4959.114768	Steps:4 KeyPress:True Matched:True	1	n/a	4	True	True	n/a	n/a	n/a	n-backMarkers
847.865399	1.701006	nback_4	4960.815081	Steps:4 KeyPress:False Matched:True	0	n/a	4	False	True	n/a	n/a	n/a	n-backMarkers
849.566881	1.701006	nback_4	4962.516563	Steps:4 KeyPress:False Matched:False	1	n/a	4	False	False	n/a	n/a	n/a	n-backMarkers
851.267874	1.701006	nback_4	4964.217556	Steps:4 KeyPress:False Matched:False	1	n/a	4	False	False	n/a	n/a	n/a	n-backMarkers
852.969232	1.701006	nback_4	4965.918914	Steps:4 KeyPress:False Matched:False	1	n/a	4	False	False	n/a	n/a	n/a	n-backMarkers
854.527592	0.000000	dropped_samples	4967.477274	Dropped 3 samples	n/a	n/a	n/a	n/a	n/a	n/a	n/a	3	UoHDataOffsetStream
854.671468	1.701006	nback_4	4967.621150	Steps:4 KeyPress:False Matched:True	0	n/a	4	False	True	n/a	n/a	n/a	n-backMarkers
856.372117	1.701006	nback_4	4969.321799	Steps:4 KeyPress:False Matched:False	1	n/a	4	False	False	n/a	n/a	n/a	n-backMarkers
857.193639	0.000000	dropped_samples	4970.143321	Dropped 1 samples	n/a	n/a	n/a	n/a	n/a	n/a	n/a	1	UoHDataOffsetStream
858.072754	1.701006	nback_4	4971.022436	Steps:4 KeyPress:False Matched:True	0	n/a	4	False	True	n/a	n/a	n/a	n-backMarkers
859.773782	1.701006	nback_4	4972.723464	Steps:4 KeyPress:False Matched:False	1	n/a	4	False	False	n/a	n/a	n/a	n-backMarkers
860.382134	0.000000	dropped_samples	4973.331816	Dropped 3 samples	n/a	n/a	n/a	n/a	n/a	n/a	n/a	3	UoHDataOffsetStream
860.982779	0.000000	dropped_samples	4973.932461	Dropped 2 samples	n/a	n/a	n/a	n/a	n/a	n/a	n/a	2	UoHDataOffsetStream
861.474311	1.701006	nback_4	4974.423993	Steps:4 KeyPress:False Matched:False	1	n/a	4	False	False	n/a	n/a	n/a	n-backMarkers
863.175558	1.701006	nback_4	4976.125240	Steps:4 KeyPress:False Matched:False	1	n/a	4	False	False	n/a	n/a	n/a	n-backMarkers
864.876367	1.701006	nback_4	4977.826049	Steps:4 KeyPress:False Matched:True	0	n/a	4	False	True	n/a	n/a	n/a	n-backMarkers
865.230746	0.000000	dropped_samples	4978.180428	Dropped 1 samples	n/a	n/a	n/a	n/a	n/a	n/a	n/a	1	UoHDataOffsetStream
866.577168	1.701006	nback_4	4979.526850	Steps:4 KeyPress:False Matched:False	1	n/a	4	False	False	n/a	n/a	n/a	n-backMarkers
868.279520	1.701006	nback_4	4981.229202	Steps:4 KeyPress:False Matched:True	0	n/a	4	False	True	n/a	n/a	n/a	n-backMarkers
869.503243	0.000000	dropped_samples	4982.452925	Dropped 1 samples	n/a	n/a	n/a	n/a	n/a	n/a	n/a	1	UoHDataOffsetStream
869.980207	1.701006	nback_4	4982.929889	Steps:4 KeyPress:False Matched:False	1	n/a	4	False	False	n/a	n/a	n/a	n-backMarkers
871.682087	1.701006	nback_4	4984.631769	Steps:4 KeyPress:False Matched:False	1	n/a	4	False	False	n/a	n/a	n/a	n-backMarkers
872.960269	0.000000	dropped_samples	4985.909951	Dropped 1 samples	n/a	n/a	n/a	n/a	n/a	n/a	n/a	1	UoHDataOffsetStream
873.382186	1.701006	nback_4	4986.331868	Steps:4 KeyPress:True Matched:False	0	n/a	4	True	False	n/a	n/a	n/a	n-backMarkers
875.083543	1.701006	nback_4	4988.033225	Steps:4 KeyPress:False Matched:True	0	n/a	4	False	True	n/a	n/a	n/a	n-backMarkers
875.094140	0.000000	dropped_samples	4988.043822	Dropped 1 samples	n/a	n/a	n/a	n/a	n/a	n/a	n/a	1	UoHDataOffsetStream
876.392868	0.000000	dropped_samples	4989.342550	Dropped 1 samples	n/a	n/a	n/a	n/a	n/a	n/a	n/a	1	UoHDataOffsetStream
876.783620	1.701006	nback_4	4989.733302	Steps:4 KeyPress:False Matched:True	0	n/a	4	False	True	n/a	n/a	n/a	n-backMarkers
877.447593	0.000000	dropped_samples	4990.397275	Dropped 1 samples	n/a	n/a	n/a	n/a	n/a	n/a	n/a	1	UoHDataOffsetStream
878.483630	1.701006	nback_4	4991.433312	Steps:4 KeyPress:False Matched:False	1	n/a	4	False	False	n/a	n/a	n/a	n-backMarkers
880.185176	1.701006	nback_4	4993.134858	Steps:4 KeyPress:False Matched:False	1	n/a	4	False	False	n/a	n/a	n/a	n-backMarkers
880.616531	0.000000	dropped_samples	4993.566213	Dropped 1 samples	n/a	n/a	n/a	n/a	n/a	n/a	n/a	1	UoHDataOffsetStream
880.953398	0.000000	dropped_samples	4993.903080	Dropped 1 samples	n/a	n/a	n/a	n/a	n/a	n/a	n/a	1	UoHDataOffsetStream
881.861670	0.000000	dropped_samples	4994.811352	Dropped 3 samples	n/a	n/a	n/a	n/a	n/a	n/a	n/a	3	UoHDataOffsetStream
881.887215	1.701006	nback_4	4994.836897	Steps:4 KeyPress:False Matched:False	1	n/a	4	False	False	n/a	n/a	n/a	n-backMarkers
882.608747	0.000000	dropped_samples	4995.558429	Dropped 3 samples	n/a	n/a	n/a	n/a	n/a	n/a	n/a	3	UoHDataOffsetStream
883.472952	0.000000	dropped_samples	4996.422634	Dropped 3 samples	n/a	n/a	n/a	n/a	n/a	n/a	n/a	3	UoHDataOffsetStream
883.587279	1.701006	nback_4	4996.536961	Steps:4 KeyPress:False Matched:True	0	n/a	4	False	True	n/a	n/a	n/a	n-backMarkers
885.288581	1.701006	nback_4	4998.238263	Steps:4 KeyPress:True Matched:True	1	n/a	4	True	True	n/a	n/a	n/a	n-backMarkers
886.989176	1.701006	nback_4	4999.938858	Steps:4 KeyPress:False Matched:False	1	n/a	4	False	False	n/a	n/a	n/a	n-backMarkers
888.126343	0.000000	dropped_samples	5001.076025	Dropped 1 samples	n/a	n/a	n/a	n/a	n/a	n/a	n/a	1	UoHDataOffsetStream
888.690872	1.701006	nback_4	5001.640554	Steps:4 KeyPress:False Matched:False	1	n/a	4	False	False	n/a	n/a	n/a	n-backMarkers
889.542299	0.000000	dropped_samples	5002.491982	Dropped 1 samples	n/a	n/a	n/a	n/a	n/a	n/a	n/a	1	UoHDataOffsetStream
890.390991	1.701006	nback_4	5003.340673	Steps:4 KeyPress:False Matched:False	1	n/a	4	False	False	n/a	n/a	n/a	n-backMarkers
891.729813	0.000000	dropped_samples	5004.679495	Dropped 1 samples	n/a	n/a	n/a	n/a	n/a	n/a	n/a	1	UoHDataOffsetStream
892.092588	1.701006	nback_4	5005.042270	Steps:4 KeyPress:True Matched:True	1	n/a	4	True	True	n/a	n/a	n/a	n-backMarkers
893.793935	1.701006	nback_4	5006.743617	Steps:4 KeyPress:False Matched:False	1	n/a	4	False	False	n/a	n/a	n/a	n-backMarkers
895.495190	1.701006	nback_4	5008.444872	Steps:4 KeyPress:False Matched:True	0	n/a	4	False	True	n/a	n/a	n/a	n-backMarkers
897.196196	1.701006	nback_4	5010.145878	Steps:4 KeyPress:False Matched:False	1	n/a	4	False	False	n/a	n/a	n/a	n-backMarkers
898.897112	1.701006	nback_4	5011.846794	Steps:4 KeyPress:False Matched:False	1	n/a	4	False	False	n/a	n/a	n/a	n-backMarkers
900.598215	1.701006	nback_4	5013.547897	Steps:4 KeyPress:False Matched:False	1	n/a	4	False	False	n/a	n/a	n/a	n-backMarkers
901.519835	0.000000	dropped_samples	5014.469517	Dropped 1 samples	n/a	n/a	n/a	n/a	n/a	n/a	n/a	1	UoHDataOffsetStream
902.300131	1.701006	nback_4	5015.249813	Steps:4 KeyPress:False Matched:True	0	n/a	4	False	True	n/a	n/a	n/a	n-backMarkers
903.634126	0.000000	dropped_samples	5016.583808	Dropped 1 samples	n/a	n/a	n/a	n/a	n/a	n/a	n/a	1	UoHDataOffsetStream
904.001085	1.701006	nback_4	5016.950767	Steps:4 KeyPress:True Matched:True	1	n/a	4	True	True	n/a	n/a	n/a	n-backMarkers
904.781611	0.000000	dropped_samples	5017.731293	Dropped 1 samples	n/a	n/a	n/a	n/a	n/a	n/a	n/a	1	UoHDataOffsetStream
905.701117	1.701006	nback_4	5018.650799	Steps:4 KeyPress:False Matched:False	1	n/a	4	False	False	n/a	n/a	n/a	n-backMarkers
906.441730	0.000000	dropped_samples	5019.391412	Dropped 1 samples	n/a	n/a	n/a	n/a	n/a	n/a	n/a	1	UoHDataOffsetStream
907.159489	0.000000	dropped_samples	5020.109171	Dropped 3 samples	n/a	n/a	n/a	n/a	n/a	n/a	n/a	3	UoHDataOffsetStream
907.402165	1.701006	nback_4	5020.351847	Steps:4 KeyPress:False Matched:False	1	n/a	4	False	False	n/a	n/a	n/a	n-backMarkers
908.477879	0.000000	dropped_samples	5021.427561	Dropped 3 samples	n/a	n/a	n/a	n/a	n/a	n/a	n/a	3	UoHDataOffsetStream
909.103992	1.701006	nback_4	5022.053674	Steps:4 KeyPress:False Matched:False	1	n/a	4	False	False	n/a	n/a	n/a	n-backMarkers
910.804172	1.701006	nback_4	5023.753854	Steps:4 KeyPress:False Matched:True	0	n/a	4	False	True	n/a	n/a	n/a	n-backMarkers
911.864654	0.000000	dropped_samples	5024.814336	Dropped 1 samples	n/a	n/a	n/a	n/a	n/a	n/a	n/a	1	UoHDataOffsetStream
912.505222	1.701006	nback_4	5025.454904	Steps:4 KeyPress:True Matched:True	1	n/a	4	True	True	n/a	n/a	n/a	n-backMarkers
914.207021	1.701006	nback_4	5027.156703	Steps:4 KeyPress:False Matched:False	1	n/a	4	False	False	n/a	n/a	n/a	n-backMarkers
915.128291	0.000000	dropped_samples	5028.077973	Dropped 1 samples	n/a	n/a	n/a	n/a	n/a	n/a	n/a	1	UoHDataOffsetStream
915.908103	1.701006	nback_4	5028.857785	Steps:4 KeyPress:False Matched:False	1	n/a	4	False	False	n/a	n/a	n/a	n-backMarkers
917.609143	1.701006	nback_4	5030.558825	Steps:4 KeyPress:False Matched:False	1	n/a	4	False	False	n/a	n/a	n/a	n-backMarkers
918.609710	0.000000	dropped_samples	5031.559392	Dropped 1 samples	n/a	n/a	n/a	n/a	n/a	n/a	n/a	1	UoHDataOffsetStream
919.310877	1.701006	nback_4	5032.260559	Steps:4 KeyPress:False Matched:True	0	n/a	4	False	True	n/a	n/a	n/a	n-backMarkers
920.933971	0.000000	dropped_samples	5033.883653	Dropped 1 samples	n/a	n/a	n/a	n/a	n/a	n/a	n/a	1	UoHDataOffsetStream
921.011581	1.701006	nback_4	5033.961263	Steps:4 KeyPress:True Matched:False	0	n/a	4	True	False	n/a	n/a	n/a	n-backMarkers
922.712084	1.701006	nback_4	5035.661766	Steps:4 KeyPress:False Matched:False	1	n/a	4	False	False	n/a	n/a	n/a	n-backMarkers
923.551166	0.000000	dropped_samples	5036.500848	Dropped 3 samples	n/a	n/a	n/a	n/a	n/a	n/a	n/a	3	UoHDataOffsetStream
924.413100	1.701006	nback_4	5037.362782	Steps:4 KeyPress:False Matched:True	0	n/a	4	False	True	n/a	n/a	n/a	n-backMarkers
925.064796	0.000000	dropped_samples	5038.014478	Dropped 1 samples	n/a	n/a	n/a	n/a	n/a	n/a	n/a	1	UoHDataOffsetStream
925.182029	0.000000	dropped_samples	5038.131711	Dropped 1 samples	n/a	n/a	n/a	n/a	n/a	n/a	n/a	1	UoHDataOffsetStream
926.115192	1.701006	nback_4	5039.064874	Steps:4 KeyPress:False Matched:False	1	n/a	4	False	False	n/a	n/a	n/a	n-backMarkers
927.278216	0.000000	dropped_samples	5040.227898	Dropped 3 samples	n/a	n/a	n/a	n/a	n/a	n/a	n/a	3	UoHDataOffsetStream
927.816198	1.701006	nback_4	5040.765880	Steps:4 KeyPress:False Matched:False	1	n/a	4	False	False	n/a	n/a	n/a	n-backMarkers
928.639192	0.000000	dropped_samples	5041.588874	Dropped 3 samples	n/a	n/a	n/a	n/a	n/a	n/a	n/a	3	UoHDataOffsetStream
929.517085	1.701006	nback_4	5042.466767	Steps:4 KeyPress:False Matched:False	1	n/a	4	False	False	n/a	n/a	n/a	n-backMarkers
930.728867	0.000000	dropped_samples	5043.678549	Dropped 2 samples	n/a	n/a	n/a	n/a	n/a	n/a	n/a	2	UoHDataOffsetStream
931.219119	1.701006	nback_4	5044.168801	Steps:4 KeyPress:True Matched:True	1	n/a	4	True	True	n/a	n/a	n/a	n-backMarkers
932.919935	1.701006	nback_4	5045.869617	Steps:4 KeyPress:False Matched:False	1	n/a	4	False	False	n/a	n/a	n/a	n-backMarkers
934.620909	1.701006	nback_4	5047.570591	Steps:4 KeyPress:False Matched:False	1	n/a	4	False	False	n/a	n/a	n/a	n-backMarkers
936.178131	0.000000	dropped_samples	5049.127813	Dropped 1 samples	n/a	n/a	n/a	n/a	n/a	n/a	n/a	1	UoHDataOffsetStream
936.321581	1.701006	nback_4	5049.271263	Steps:4 KeyPress:False Matched:False	1	n/a	4	False	False	n/a	n/a	n/a	n-backMarkers
938.022783	1.701006	nback_4	5050.972465	Steps:4 KeyPress:False Matched:False	1	n/a	4	False	False	n/a	n/a	n/a	n-backMarkers
939.723449	1.701006	nback_4	5052.673131	Steps:4 KeyPress:False Matched:True	0	n/a	4	False	True	n/a	n/a	n/a	n-backMarkers
941.021921	0.000000	dropped_samples	5053.971603	Dropped 1 samples	n/a	n/a	n/a	n/a	n/a	n/a	n/a	1	UoHDataOffsetStream
941.424193	1.701006	nback_4	5054.373875	Steps:4 KeyPress:False Matched:False	1	n/a	4	False	False	n/a	n/a	n/a	n-backMarkers
943.125961	1.701006	nback_4	5056.075643	Steps:4 KeyPress:False Matched:False	1	n/a	4	False	False	n/a	n/a	n/a	n-backMarkers
943.975973	0.000000	dropped_samples	5056.925655	Dropped 1 samples	n/a	n/a	n/a	n/a	n/a	n/a	n/a	1	UoHDataOffsetStream
944.826205	1.701006	nback_4	5057.775887	Steps:4 KeyPress:False Matched:False	1	n/a	4	False	False	n/a	n/a	n/a	n-backMarkers
944.889083	0.000000	dropped_samples	5057.838765	Dropped 3 samples	n/a	n/a	n/a	n/a	n/a	n/a	n/a	3	UoHDataOffsetStream
945.729137	0.000000	dropped_samples	5058.678819	Dropped 1 samples	n/a	n/a	n/a	n/a	n/a	n/a	n/a	1	UoHDataOffsetStream
946.183134	0.000000	dropped_samples	5059.132816	Dropped 2 samples	n/a	n/a	n/a	n/a	n/a	n/a	n/a	2	UoHDataOffsetStream
946.528025	1.701006	nback_4	5059.477707	Steps:4 KeyPress:True Matched:True	1	n/a	4	True	True	n/a	n/a	n/a	n-backMarkers
948.228958	1.701006	nback_4	5061.178640	Steps:4 KeyPress:False Matched:False	1	n/a	4	False	False	n/a	n/a	n/a	n-backMarkers
949.930515	1.701006	nback_4	5062.880197	Steps:4 KeyPress:False Matched:True	0	n/a	4	False	True	n/a	n/a	n/a	n-backMarkers
951.344150	0.000000	dropped_samples	5064.293832	Dropped 1 samples	n/a	n/a	n/a	n/a	n/a	n/a	n/a	1	UoHDataOffsetStream
951.631966	1.701006	nback_4	5064.581648	Steps:4 KeyPress:False Matched:False	1	n/a	4	False	False	n/a	n/a	n/a	n-backMarkers
952.018004	0.000000	dropped_samples	5064.967687	Dropped 1 samples	n/a	n/a	n/a	n/a	n/a	n/a	n/a	1	UoHDataOffsetStream
953.333123	1.701006	nback_4	5066.282805	Steps:4 KeyPress:True Matched:False	0	n/a	4	True	False	n/a	n/a	n/a	n-backMarkers
955.034983	1.701006	nback_4	5067.984665	Steps:4 KeyPress:False Matched:False	1	n/a	4	False	False	n/a	n/a	n/a	n-backMarkers
956.578515	0.000000	dropped_samples	5069.528197	Dropped 1 samples	n/a	n/a	n/a	n/a	n/a	n/a	n/a	1	UoHDataOffsetStream
956.735979	1.701006	nback_4	5069.685661	Steps:4 KeyPress:False Matched:True	0	n/a	4	False	True	n/a	n/a	n/a	n-backMarkers
958.437016	1.701006	nback_4	5071.386698	Steps:4 KeyPress:False Matched:False	1	n/a	4	False	False	n/a	n/a	n/a	n-backMarkers
959.718221	0.000000	dropped_samples	5072.667903	Dropped 4 samples	n/a	n/a	n/a	n/a	n/a	n/a	n/a	4	UoHDataOffsetStream
960.137861	1.701006	nback_4	5073.087543	Steps:4 KeyPress:False Matched:True	0	n/a	4	False	True	n/a	n/a	n/a	n-backMarkers
960.274835	0.000000	dropped_samples	5073.224517	Dropped 3 samples	n/a	n/a	n/a	n/a	n/a	n/a	n/a	3	UoHDataOffsetStream
961.838179	1.701006	nback_4	5074.787861	Steps:4 KeyPress:False Matched:False	1	n/a	4	False	False	n/a	n/a	n/a	n-backMarkers
963.539274	1.701006	nback_4	5076.488956	Steps:4 KeyPress:False Matched:False	1	n/a	4	False	False	n/a	n/a	n/a	n-backMarkers
965.025815	0.000000	dropped_samples	5077.975497	Dropped 1 samples	n/a	n/a	n/a	n/a	n/a	n/a	n/a	1	UoHDataOffsetStream
965.240019	1.701006	nback_4	5078.189701	Steps:4 KeyPress:False Matched:False	1	n/a	4	False	False	n/a	n/a	n/a	n-backMarkers
965.743565	0.000000	dropped_samples	5078.693247	Dropped 3 samples	n/a	n/a	n/a	n/a	n/a	n/a	n/a	3	UoHDataOffsetStream
966.940890	1.701006	nback_4	5079.890572	Steps:4 KeyPress:True Matched:True	1	n/a	4	True	True	n/a	n/a	n/a	n-backMarkers
968.624460	0.000000	dropped_samples	5081.574142	Dropped 1 samples	n/a	n/a	n/a	n/a	n/a	n/a	n/a	1	UoHDataOffsetStream
