onset	duration	trial_type	timestamp_lsl	marker	response_accuracy	nback_level	key_press	matched	outcome	istutorial	dropped_samples	marker_stream
0.170821	0.004000	dropped_samples	3956.615382	Dropped 1 samples	n/a	n/a	n/a	n/a	n/a	n/a	1	UoHDataOffsetStream
2.695232	0.012000	dropped_samples	3959.139793	Dropped 3 samples	n/a	n/a	n/a	n/a	n/a	n/a	3	UoHDataOffsetStream
4.038030	0.004000	dropped_samples	3960.482591	Dropped 1 samples	n/a	n/a	n/a	n/a	n/a	n/a	1	UoHDataOffsetStream
6.894481	0.012000	dropped_samples	3963.339042	Dropped 3 samples	n/a	n/a	n/a	n/a	n/a	n/a	3	UoHDataOffsetStream
7.851519	0.012000	dropped_samples	3964.296080	Dropped 3 samples	n/a	n/a	n/a	n/a	n/a	n/a	3	UoHDataOffsetStream
10.473051	0.000000	started_tutorial_n_back	3966.917612	Started tutorial n-back	n/a	n/a	n/a	n/a	n/a	true	n/a	n-backMarkers
10.517525	0.008000	dropped_samples	3966.962086	Dropped 2 samples	n/a	n/a	n/a	n/a	n/a	n/a	2	UoHDataOffsetStream
10.707998	0.004000	dropped_samples	3967.152559	Dropped 1 samples	n/a	n/a	n/a	n/a	n/a	n/a	1	UoHDataOffsetStream
12.460964	0.004000	dropped_samples	3968.905525	Dropped 1 samples	n/a	n/a	n/a	n/a	n/a	n/a	1	UoHDataOffsetStream
21.723646	0.004000	dropped_samples	3978.168207	Dropped 1 samples	n/a	n/a	n/a	n/a	n/a	n/a	1	UoHDataOffsetStream
25.327141	0.004000	dropped_samples	3981.771701	Dropped 1 samples	n/a	n/a	n/a	n/a	n/a	n/a	1	UoHDataOffsetStream
25.971681	0.004000	dropped_samples	3982.416242	Dropped 1 samples	n/a	n/a	n/a	n/a	n/a	n/a	1	UoHDataOffsetStream
30.029317	0.004000	dropped_samples	3986.473878	Dropped 1 samples	n/a	n/a	n/a	n/a	n/a	n/a	1	UoHDataOffsetStream
35.791018	0.008000	dropped_samples	3992.235578	Dropped 2 samples	n/a	n/a	n/a	n/a	n/a	n/a	2	UoHDataOffsetStream
42.988259	0.012000	dropped_samples	3999.432820	Dropped 3 samples	n/a	n/a	n/a	n/a	n/a	n/a	3	UoHDataOffsetStream
46.040115	0.004000	dropped_samples	4002.484676	Dropped 1 samples	n/a	n/a	n/a	n/a	n/a	n/a	1	UoHDataOffsetStream
51.460142	0.004000	dropped_samples	4007.904702	Dropped 1 samples	n/a	n/a	n/a	n/a	n/a	n/a	1	UoHDataOffsetStream
53.164126	0.004000	dropped_samples	4009.608687	Dropped 1 samples	n/a	n/a	n/a	n/a	n/a	n/a	1	UoHDataOffsetStream
54.316502	0.004000	dropped_samples	4010.761062	Dropped 1 samples	n/a	n/a	n/a	n/a	n/a	n/a	1	UoHDataOffsetStream
56.167766	0.004000	dropped_samples	4012.612327	Dropped 1 samples	n/a	n/a	n/a	n/a	n/a	n/a	1	UoHDataOffsetStream
56.718788	0.004000	dropped_samples	4013.163349	Dropped 1 samples	n/a	n/a	n/a	n/a	n/a	n/a	1	UoHDataOffsetStream
59.838935	0.004000	dropped_samples	4016.283496	Dropped 1 samples	n/a	n/a	n/a	n/a	n/a	n/a	1	UoHDataOffsetStream
67.231557	0.004000	dropped_samples	4023.676118	Dropped 1 samples	n/a	n/a	n/a	n/a	n/a	n/a	1	UoHDataOffsetStream
72.675878	0.004000	dropped_samples	4029.120439	Dropped 1 samples	n/a	n/a	n/a	n/a	n/a	n/a	1	UoHDataOffsetStream
73.515716	0.012000	dropped_samples	4029.960276	Dropped 3 samples	n/a	n/a	n/a	n/a	n/a	n/a	3	UoHDataOffsetStream
77.480447	0.000000	1-back	4033.925008	Steps:1 KeyPress:False Matched:False	1	1	false	false	Correct	true	n/a	n-backMarkers
79.181030	0.000000	1-back	4035.625591	Steps:1 KeyPress:False Matched:False	1	1	false	false	Correct	true	n/a	n-backMarkers
80.882684	0.000000	1-back	4037.327245	Steps:1 KeyPress:False Matched:False	1	1	false	false	Correct	true	n/a	n-backMarkers
80.932769	0.004000	dropped_samples	4037.377330	Dropped 1 samples	n/a	n/a	n/a	n/a	n/a	n/a	1	UoHDataOffsetStream
81.079409	0.004000	dropped_samples	4037.523970	Dropped 1 samples	n/a	n/a	n/a	n/a	n/a	n/a	1	UoHDataOffsetStream
82.582971	0.000000	1-back	4039.027532	Steps:1 KeyPress:True Matched:False	0	1	true	false	Wrong	true	n/a	n-backMarkers
84.283801	0.000000	1-back	4040.728362	Steps:1 KeyPress:True Matched:False	0	1	true	false	Wrong	true	n/a	n-backMarkers
85.131952	0.068000	dropped_samples	4041.576513	Dropped 17 samples	n/a	n/a	n/a	n/a	n/a	n/a	17	UoHDataOffsetStream
85.278541	0.004000	dropped_samples	4041.723102	Dropped 1 samples	n/a	n/a	n/a	n/a	n/a	n/a	1	UoHDataOffsetStream
85.639807	0.004000	dropped_samples	4042.084368	Dropped 1 samples	n/a	n/a	n/a	n/a	n/a	n/a	1	UoHDataOffsetStream
85.985229	0.000000	1-back	4042.429790	Steps:1 KeyPress:False Matched:True	0	1	false	true	Wrong	true	n/a	n-backMarkers
86.718921	0.004000	dropped_samples	4043.163482	Dropped 1 samples	n/a	n/a	n/a	n/a	n/a	n/a	1	UoHDataOffsetStream
87.687788	0.000000	1-back	4044.132349	Steps:1 KeyPress:False Matched:True	0	1	false	true	Wrong	true	n/a	n-backMarkers
89.391004	0.000000	1-back	4045.835565	Steps:1 KeyPress:False Matched:False	1	1	false	false	Correct	true	n/a	n-backMarkers
91.092898	0.000000	1-back	4047.537459	Steps:1 KeyPress:True Matched:False	0	1	true	false	Wrong	true	n/a	n-backMarkers
92.795116	0.000000	1-back	4049.239676	Steps:1 KeyPress:False Matched:True	0	1	false	true	Wrong	true	n/a	n-backMarkers
93.388835	0.004000	dropped_samples	4049.833396	Dropped 1 samples	n/a	n/a	n/a	n/a	n/a	n/a	1	UoHDataOffsetStream
94.498826	0.000000	1-back	4050.943387	Steps:1 KeyPress:False Matched:False	1	1	false	false	Correct	true	n/a	n-backMarkers
95.117597	0.008000	dropped_samples	4051.562158	Dropped 2 samples	n/a	n/a	n/a	n/a	n/a	n/a	2	UoHDataOffsetStream
96.199455	0.000000	1-back	4052.644015	Steps:1 KeyPress:True Matched:False	0	1	true	false	Wrong	true	n/a	n-backMarkers
97.758948	0.008000	dropped_samples	4054.203509	Dropped 2 samples	n/a	n/a	n/a	n/a	n/a	n/a	2	UoHDataOffsetStream
97.900937	0.000000	1-back	4054.345498	Steps:1 KeyPress:False Matched:False	1	1	false	false	Correct	true	n/a	n-backMarkers
99.601737	0.000000	1-back	4056.046298	Steps:1 KeyPress:True Matched:False	0	1	true	false	Wrong	true	n/a	n-backMarkers
100.732569	0.004000	dropped_samples	4057.177130	Dropped 1 samples	n/a	n/a	n/a	n/a	n/a	n/a	1	UoHDataOffsetStream
101.191574	0.004000	dropped_samples	4057.636134	Dropped 1 samples	n/a	n/a	n/a	n/a	n/a	n/a	1	UoHDataOffsetStream
101.303695	0.000000	1-back	4057.748256	Steps:1 KeyPress:False Matched:True	0	1	false	true	Wrong	true	n/a	n-backMarkers
103.005469	0.000000	1-back	4059.450030	Steps:1 KeyPress:False Matched:False	1	1	false	false	Correct	true	n/a	n-backMarkers
104.708765	0.000000	1-back	4061.153326	Steps:1 KeyPress:True Matched:False	0	1	true	false	Wrong	true	n/a	n-backMarkers
106.409700	0.000000	1-back	4062.854261	Steps:1 KeyPress:False Matched:False	1	1	false	false	Correct	true	n/a	n-backMarkers
106.445544	0.004000	dropped_samples	4062.890105	Dropped 1 samples	n/a	n/a	n/a	n/a	n/a	n/a	1	UoHDataOffsetStream
107.236477	0.004000	dropped_samples	4063.681038	Dropped 1 samples	n/a	n/a	n/a	n/a	n/a	n/a	1	UoHDataOffsetStream
108.110773	0.000000	1-back	4064.555333	Steps:1 KeyPress:True Matched:False	0	1	true	false	Wrong	true	n/a	n-backMarkers
108.413276	0.012000	dropped_samples	4064.857837	Dropped 3 samples	n/a	n/a	n/a	n/a	n/a	n/a	3	UoHDataOffsetStream
109.810999	0.000000	1-back	4066.255560	Steps:1 KeyPress:False Matched:True	0	1	false	true	Wrong	true	n/a	n-backMarkers
111.512870	0.000000	1-back	4067.957431	Steps:1 KeyPress:False Matched:True	0	1	false	true	Wrong	true	n/a	n-backMarkers
114.941655	0.004000	dropped_samples	4071.386216	Dropped 1 samples	n/a	n/a	n/a	n/a	n/a	n/a	1	UoHDataOffsetStream
120.219667	0.000000	2-back	4076.664227	Steps:2 KeyPress:False Matched:False	1	2	false	false	Correct	true	n/a	n-backMarkers
121.921505	0.000000	2-back	4078.366066	Steps:2 KeyPress:False Matched:False	1	2	false	false	Correct	true	n/a	n-backMarkers
123.623270	0.000000	2-back	4080.067831	Steps:2 KeyPress:False Matched:False	1	2	false	false	Correct	true	n/a	n-backMarkers
125.324937	0.000000	2-back	4081.769498	Steps:2 KeyPress:True Matched:True	1	2	true	true	Correct	true	n/a	n-backMarkers
127.027770	0.000000	2-back	4083.472331	Steps:2 KeyPress:False Matched:False	1	2	false	false	Correct	true	n/a	n-backMarkers
128.729597	0.000000	2-back	4085.174158	Steps:2 KeyPress:False Matched:False	1	2	false	false	Correct	true	n/a	n-backMarkers
130.432950	0.000000	2-back	4086.877511	Steps:2 KeyPress:False Matched:False	1	2	false	false	Correct	true	n/a	n-backMarkers
130.952364	0.012000	dropped_samples	4087.396925	Dropped 3 samples	n/a	n/a	n/a	n/a	n/a	n/a	3	UoHDataOffsetStream
132.134218	0.000000	2-back	4088.578779	Steps:2 KeyPress:True Matched:False	0	2	true	false	Wrong	true	n/a	n-backMarkers
133.835176	0.000000	2-back	4090.279737	Steps:2 KeyPress:False Matched:True	0	2	false	true	Wrong	true	n/a	n-backMarkers
135.536247	0.000000	2-back	4091.980808	Steps:2 KeyPress:False Matched:False	1	2	false	false	Correct	true	n/a	n-backMarkers
136.665305	0.004000	dropped_samples	4093.109866	Dropped 1 samples	n/a	n/a	n/a	n/a	n/a	n/a	1	UoHDataOffsetStream
137.238792	0.000000	2-back	4093.683353	Steps:2 KeyPress:False Matched:False	1	2	false	false	Correct	true	n/a	n-backMarkers
137.695556	0.008000	dropped_samples	4094.140117	Dropped 2 samples	n/a	n/a	n/a	n/a	n/a	n/a	2	UoHDataOffsetStream
138.437714	0.004000	dropped_samples	4094.882275	Dropped 1 samples	n/a	n/a	n/a	n/a	n/a	n/a	1	UoHDataOffsetStream
138.940448	0.000000	2-back	4095.385009	Steps:2 KeyPress:True Matched:False	0	2	true	false	Wrong	true	n/a	n-backMarkers
140.641601	0.000000	2-back	4097.086162	Steps:2 KeyPress:False Matched:True	0	2	false	true	Wrong	true	n/a	n-backMarkers
142.344530	0.000000	2-back	4098.789091	Steps:2 KeyPress:False Matched:False	1	2	false	false	Correct	true	n/a	n-backMarkers
143.237565	0.004000	dropped_samples	4099.682126	Dropped 1 samples	n/a	n/a	n/a	n/a	n/a	n/a	1	UoHDataOffsetStream
144.044825	0.000000	2-back	4100.489386	Steps:2 KeyPress:False Matched:True	0	2	false	true	Wrong	true	n/a	n-backMarkers
145.746683	0.000000	2-back	4102.191244	Steps:2 KeyPress:False Matched:False	1	2	false	false	Correct	true	n/a	n-backMarkers
147.447080	0.000000	2-back	4103.891641	Steps:2 KeyPress:False Matched:False	1	2	false	false	Correct	true	n/a	n-backMarkers
149.149775	0.000000	2-back	4105.594336	Steps:2 KeyPress:True Matched:False	0	2	true	false	Wrong	true	n/a	n-backMarkers
150.851179	0.000000	2-back	4107.295740	Steps:2 KeyPress:False Matched:False	1	2	false	false	Correct	true	n/a	n-backMarkers
152.554541	0.000000	2-back	4108.999102	Steps:2 KeyPress:False Matched:False	1	2	false	false	Correct	true	n/a	n-backMarkers
156.631173	0.012000	dropped_samples	4113.075734	Dropped 3 samples	n/a	n/a	n/a	n/a	n/a	n/a	3	UoHDataOffsetStream
161.257375	0.000000	3-back	4117.701936	Steps:3 KeyPress:False Matched:False	1	3	false	false	Correct	true	n/a	n-backMarkers
161.596984	0.212000	dropped_samples	4118.041545	Dropped 53 samples	n/a	n/a	n/a	n/a	n/a	n/a	53	UoHDataOffsetStream
162.958947	0.000000	3-back	4119.403508	Steps:3 KeyPress:False Matched:False	1	3	false	false	Correct	true	n/a	n-backMarkers
164.659361	0.000000	3-back	4121.103922	Steps:3 KeyPress:False Matched:False	1	3	false	false	Correct	true	n/a	n-backMarkers
165.752266	0.004000	dropped_samples	4122.196827	Dropped 1 samples	n/a	n/a	n/a	n/a	n/a	n/a	1	UoHDataOffsetStream
166.360509	0.000000	3-back	4122.805070	Steps:3 KeyPress:False Matched:False	1	3	false	false	Correct	true	n/a	n-backMarkers
168.060870	0.000000	3-back	4124.505431	Steps:3 KeyPress:True Matched:False	0	3	true	false	Wrong	true	n/a	n-backMarkers
169.302107	0.004000	dropped_samples	4125.746668	Dropped 1 samples	n/a	n/a	n/a	n/a	n/a	n/a	1	UoHDataOffsetStream
169.761056	0.004000	dropped_samples	4126.205617	Dropped 1 samples	n/a	n/a	n/a	n/a	n/a	n/a	1	UoHDataOffsetStream
169.762756	0.000000	3-back	4126.207317	Steps:3 KeyPress:False Matched:False	1	3	false	false	Correct	true	n/a	n-backMarkers
171.464720	0.000000	3-back	4127.909281	Steps:3 KeyPress:False Matched:False	1	3	false	false	Correct	true	n/a	n-backMarkers
173.165664	0.000000	3-back	4129.610224	Steps:3 KeyPress:True Matched:False	0	3	true	false	Wrong	true	n/a	n-backMarkers
174.866329	0.000000	3-back	4131.310890	Steps:3 KeyPress:False Matched:True	0	3	false	true	Wrong	true	n/a	n-backMarkers
176.569559	0.000000	3-back	4133.014120	Steps:3 KeyPress:False Matched:False	1	3	false	false	Correct	true	n/a	n-backMarkers
178.271501	0.000000	3-back	4134.716062	Steps:3 KeyPress:True Matched:False	0	3	true	false	Wrong	true	n/a	n-backMarkers
179.972569	0.000000	3-back	4136.417129	Steps:3 KeyPress:False Matched:False	1	3	false	false	Correct	true	n/a	n-backMarkers
181.674570	0.000000	3-back	4138.119131	Steps:3 KeyPress:True Matched:False	0	3	true	false	Wrong	true	n/a	n-backMarkers
183.375588	0.000000	3-back	4139.820149	Steps:3 KeyPress:False Matched:True	0	3	false	true	Wrong	true	n/a	n-backMarkers
184.761121	0.004000	dropped_samples	4141.205682	Dropped 1 samples	n/a	n/a	n/a	n/a	n/a	n/a	1	UoHDataOffsetStream
185.080477	0.000000	3-back	4141.525038	Steps:3 KeyPress:False Matched:False	1	3	false	false	Correct	true	n/a	n-backMarkers
186.782700	0.000000	3-back	4143.227260	Steps:3 KeyPress:False Matched:False	1	3	false	false	Correct	true	n/a	n-backMarkers
188.485516	0.000000	3-back	4144.930077	Steps:3 KeyPress:True Matched:False	0	3	true	false	Wrong	true	n/a	n-backMarkers
190.256546	0.000000	3-back	4146.701107	Steps:3 KeyPress:False Matched:False	1	3	false	false	Correct	true	n/a	n-backMarkers
191.958770	0.000000	3-back	4148.403330	Steps:3 KeyPress:True Matched:False	0	3	true	false	Wrong	true	n/a	n-backMarkers
193.660796	0.000000	3-back	4150.105357	Steps:3 KeyPress:False Matched:False	1	3	false	false	Correct	true	n/a	n-backMarkers
202.354769	0.000000	4-back	4158.799330	Steps:4 KeyPress:False Matched:False	1	4	false	false	Correct	true	n/a	n-backMarkers
202.661532	0.004000	dropped_samples	4159.106093	Dropped 1 samples	n/a	n/a	n/a	n/a	n/a	n/a	1	UoHDataOffsetStream
204.055534	0.000000	4-back	4160.500095	Steps:4 KeyPress:False Matched:False	1	4	false	false	Correct	true	n/a	n-backMarkers
205.757325	0.000000	4-back	4162.201886	Steps:4 KeyPress:False Matched:True	0	4	false	true	Wrong	true	n/a	n-backMarkers
207.457501	0.000000	4-back	4163.902062	Steps:4 KeyPress:False Matched:False	1	4	false	false	Correct	true	n/a	n-backMarkers
207.534636	0.004000	dropped_samples	4163.979197	Dropped 1 samples	n/a	n/a	n/a	n/a	n/a	n/a	1	UoHDataOffsetStream
209.158733	0.000000	4-back	4165.603294	Steps:4 KeyPress:True Matched:True	1	4	true	true	Correct	true	n/a	n-backMarkers
210.860792	0.000000	4-back	4167.305352	Steps:4 KeyPress:False Matched:False	1	4	false	false	Correct	true	n/a	n-backMarkers
212.266058	0.004000	dropped_samples	4168.710619	Dropped 1 samples	n/a	n/a	n/a	n/a	n/a	n/a	1	UoHDataOffsetStream
212.562785	0.000000	4-back	4169.007346	Steps:4 KeyPress:False Matched:False	1	4	false	false	Correct	true	n/a	n-backMarkers
214.264572	0.000000	4-back	4170.709132	Steps:4 KeyPress:False Matched:False	1	4	false	false	Correct	true	n/a	n-backMarkers
214.448695	0.004000	dropped_samples	4170.893256	Dropped 1 samples	n/a	n/a	n/a	n/a	n/a	n/a	1	UoHDataOffsetStream
214.521918	0.004000	dropped_samples	4170.966479	Dropped 1 samples	n/a	n/a	n/a	n/a	n/a	n/a	1	UoHDataOffsetStream
215.964834	0.000000	4-back	4172.409394	Steps:4 KeyPress:True Matched:True	1	4	true	true	Correct	true	n/a	n-backMarkers
217.666368	0.000000	4-back	4174.110929	Steps:4 KeyPress:False Matched:True	0	4	false	true	Wrong	true	n/a	n-backMarkers
219.368627	0.000000	4-back	4175.813188	Steps:4 KeyPress:False Matched:False	1	4	false	false	Correct	true	n/a	n-backMarkers
220.278738	0.004000	dropped_samples	4176.723299	Dropped 1 samples	n/a	n/a	n/a	n/a	n/a	n/a	1	UoHDataOffsetStream
221.069705	0.000000	4-back	4177.514266	Steps:4 KeyPress:False Matched:False	1	4	false	false	Correct	true	n/a	n-backMarkers
222.770971	0.000000	4-back	4179.215532	Steps:4 KeyPress:False Matched:False	1	4	false	false	Correct	true	n/a	n-backMarkers
223.613726	0.012000	dropped_samples	4180.058286	Dropped 3 samples	n/a	n/a	n/a	n/a	n/a	n/a	3	UoHDataOffsetStream
224.472913	0.000000	4-back	4180.917474	Steps:4 KeyPress:True Matched:True	1	4	true	true	Correct	true	n/a	n-backMarkers
226.175477	0.000000	4-back	4182.620038	Steps:4 KeyPress:False Matched:False	1	4	false	false	Correct	true	n/a	n-backMarkers
227.877565	0.000000	4-back	4184.322126	Steps:4 KeyPress:False Matched:False	1	4	false	false	Correct	true	n/a	n-backMarkers
229.579723	0.000000	4-back	4186.024284	Steps:4 KeyPress:False Matched:True	0	4	false	true	Wrong	true	n/a	n-backMarkers
231.280524	0.000000	4-back	4187.725085	Steps:4 KeyPress:False Matched:False	1	4	false	false	Correct	true	n/a	n-backMarkers
231.821747	0.012000	dropped_samples	4188.266308	Dropped 3 samples	n/a	n/a	n/a	n/a	n/a	n/a	3	UoHDataOffsetStream
232.982901	0.000000	4-back	4189.427461	Steps:4 KeyPress:False Matched:False	1	4	false	false	Correct	true	n/a	n-backMarkers
234.684439	0.000000	4-back	4191.129000	Steps:4 KeyPress:False Matched:False	1	4	false	false	Correct	true	n/a	n-backMarkers
235.389878	0.000000	finished_tutorial_n_back	4191.834439	Finished tutorial n-back	n/a	n/a	n/a	n/a	n/a	true	n/a	n-backMarkers
237.729996	0.004000	dropped_samples	4194.174557	Dropped 1 samples	n/a	n/a	n/a	n/a	n/a	n/a	1	UoHDataOffsetStream
237.993943	0.000000	started_n_back	4194.438504	Started n-back	n/a	n/a	n/a	n/a	n/a	false	n/a	n-backMarkers
241.880387	0.004000	dropped_samples	4198.324948	Dropped 1 samples	n/a	n/a	n/a	n/a	n/a	n/a	1	UoHDataOffsetStream
246.016334	0.000000	1-back	4202.460895	Steps:1 KeyPress:False Matched:False	1	1	false	false	Correct	false	n/a	n-backMarkers
246.802260	0.004000	dropped_samples	4203.246821	Dropped 1 samples	n/a	n/a	n/a	n/a	n/a	n/a	1	UoHDataOffsetStream
247.717202	0.000000	1-back	4204.161763	Steps:1 KeyPress:False Matched:False	1	1	false	false	Correct	false	n/a	n-backMarkers
249.420198	0.000000	1-back	4205.864759	Steps:1 KeyPress:False Matched:False	1	1	false	false	Correct	false	n/a	n-backMarkers
250.713412	0.004000	dropped_samples	4207.157973	Dropped 1 samples	n/a	n/a	n/a	n/a	n/a	n/a	1	UoHDataOffsetStream
251.121243	0.000000	1-back	4207.565804	Steps:1 KeyPress:True Matched:False	0	1	true	false	Wrong	false	n/a	n-backMarkers
251.934274	0.004000	dropped_samples	4208.378835	Dropped 1 samples	n/a	n/a	n/a	n/a	n/a	n/a	1	UoHDataOffsetStream
252.822449	0.000000	1-back	4209.267010	Steps:1 KeyPress:False Matched:True	0	1	false	true	Wrong	false	n/a	n-backMarkers
254.522728	0.000000	1-back	4210.967289	Steps:1 KeyPress:False Matched:True	0	1	false	true	Wrong	false	n/a	n-backMarkers
256.224158	0.000000	1-back	4212.668718	Steps:1 KeyPress:False Matched:False	1	1	false	false	Correct	false	n/a	n-backMarkers
257.924742	0.000000	1-back	4214.369303	Steps:1 KeyPress:True Matched:False	0	1	true	false	Wrong	false	n/a	n-backMarkers
259.626647	0.000000	1-back	4216.071208	Steps:1 KeyPress:False Matched:True	0	1	false	true	Wrong	false	n/a	n-backMarkers
261.128896	0.004000	dropped_samples	4217.573456	Dropped 1 samples	n/a	n/a	n/a	n/a	n/a	n/a	1	UoHDataOffsetStream
261.326771	0.000000	1-back	4217.771331	Steps:1 KeyPress:False Matched:True	0	1	false	true	Wrong	false	n/a	n-backMarkers
263.028102	0.000000	1-back	4219.472662	Steps:1 KeyPress:False Matched:False	1	1	false	false	Correct	false	n/a	n-backMarkers
263.745727	0.012000	dropped_samples	4220.190288	Dropped 3 samples	n/a	n/a	n/a	n/a	n/a	n/a	3	UoHDataOffsetStream
264.728865	0.000000	1-back	4221.173426	Steps:1 KeyPress:True Matched:False	0	1	true	false	Wrong	false	n/a	n-backMarkers
266.143140	0.012000	dropped_samples	4222.587701	Dropped 3 samples	n/a	n/a	n/a	n/a	n/a	n/a	3	UoHDataOffsetStream
266.430406	0.000000	1-back	4222.874967	Steps:1 KeyPress:False Matched:True	0	1	false	true	Wrong	false	n/a	n-backMarkers
268.131205	0.000000	1-back	4224.575765	Steps:1 KeyPress:False Matched:False	1	1	false	false	Correct	false	n/a	n-backMarkers
268.999554	0.004000	dropped_samples	4225.444115	Dropped 1 samples	n/a	n/a	n/a	n/a	n/a	n/a	1	UoHDataOffsetStream
269.832123	0.000000	1-back	4226.276683	Steps:1 KeyPress:True Matched:False	0	1	true	false	Wrong	false	n/a	n-backMarkers
271.532656	0.000000	1-back	4227.977217	Steps:1 KeyPress:False Matched:True	0	1	false	true	Wrong	false	n/a	n-backMarkers
273.233415	0.000000	1-back	4229.677976	Steps:1 KeyPress:True Matched:False	0	1	true	false	Wrong	false	n/a	n-backMarkers
274.934837	0.000000	1-back	4231.379398	Steps:1 KeyPress:True Matched:False	0	1	true	false	Wrong	false	n/a	n-backMarkers
276.636147	0.000000	1-back	4233.080708	Steps:1 KeyPress:False Matched:True	0	1	false	true	Wrong	false	n/a	n-backMarkers
278.336535	0.000000	1-back	4234.781096	Steps:1 KeyPress:False Matched:False	1	1	false	false	Correct	false	n/a	n-backMarkers
278.794515	0.012000	dropped_samples	4235.239076	Dropped 3 samples	n/a	n/a	n/a	n/a	n/a	n/a	3	UoHDataOffsetStream
280.037280	0.000000	1-back	4236.481840	Steps:1 KeyPress:True Matched:False	0	1	true	false	Wrong	false	n/a	n-backMarkers
280.542620	0.012000	dropped_samples	4236.987181	Dropped 3 samples	n/a	n/a	n/a	n/a	n/a	n/a	3	UoHDataOffsetStream
281.738512	0.000000	1-back	4238.183073	Steps:1 KeyPress:False Matched:True	0	1	false	true	Wrong	false	n/a	n-backMarkers
282.301254	0.004000	dropped_samples	4238.745814	Dropped 1 samples	n/a	n/a	n/a	n/a	n/a	n/a	1	UoHDataOffsetStream
282.344449	0.008000	dropped_samples	4238.789009	Dropped 2 samples	n/a	n/a	n/a	n/a	n/a	n/a	2	UoHDataOffsetStream
283.439319	0.000000	1-back	4239.883880	Steps:1 KeyPress:False Matched:False	1	1	false	false	Correct	false	n/a	n-backMarkers
283.662741	0.004000	dropped_samples	4240.107302	Dropped 1 samples	n/a	n/a	n/a	n/a	n/a	n/a	1	UoHDataOffsetStream
284.072841	0.012000	dropped_samples	4240.517402	Dropped 3 samples	n/a	n/a	n/a	n/a	n/a	n/a	3	UoHDataOffsetStream
285.127600	0.004000	dropped_samples	4241.572161	Dropped 1 samples	n/a	n/a	n/a	n/a	n/a	n/a	1	UoHDataOffsetStream
285.140219	0.000000	1-back	4241.584780	Steps:1 KeyPress:True Matched:False	0	1	true	false	Wrong	false	n/a	n-backMarkers
286.841854	0.000000	1-back	4243.286415	Steps:1 KeyPress:False Matched:True	0	1	false	true	Wrong	false	n/a	n-backMarkers
287.935153	0.004000	dropped_samples	4244.379714	Dropped 1 samples	n/a	n/a	n/a	n/a	n/a	n/a	1	UoHDataOffsetStream
288.542725	0.000000	1-back	4244.987286	Steps:1 KeyPress:False Matched:True	0	1	false	true	Wrong	false	n/a	n-backMarkers
289.570907	0.012000	dropped_samples	4246.015468	Dropped 3 samples	n/a	n/a	n/a	n/a	n/a	n/a	3	UoHDataOffsetStream
290.242708	0.000000	1-back	4246.687269	Steps:1 KeyPress:False Matched:False	1	1	false	false	Correct	false	n/a	n-backMarkers
291.943472	0.000000	1-back	4248.388033	Steps:1 KeyPress:True Matched:False	0	1	true	false	Wrong	false	n/a	n-backMarkers
293.623655	0.004000	dropped_samples	4250.068216	Dropped 1 samples	n/a	n/a	n/a	n/a	n/a	n/a	1	UoHDataOffsetStream
293.644449	0.000000	1-back	4250.089010	Steps:1 KeyPress:False Matched:True	0	1	false	true	Wrong	false	n/a	n-backMarkers
294.439081	0.004000	dropped_samples	4250.883642	Dropped 1 samples	n/a	n/a	n/a	n/a	n/a	n/a	1	UoHDataOffsetStream
295.345185	0.000000	1-back	4251.789746	Steps:1 KeyPress:False Matched:False	1	1	false	false	Correct	false	n/a	n-backMarkers
296.792632	0.004000	dropped_samples	4253.237193	Dropped 1 samples	n/a	n/a	n/a	n/a	n/a	n/a	1	UoHDataOffsetStream
297.046094	0.000000	1-back	4253.490655	Steps:1 KeyPress:True Matched:False	0	1	true	false	Wrong	false	n/a	n-backMarkers
298.747088	0.000000	1-back	4255.191649	Steps:1 KeyPress:False Matched:False	1	1	false	false	Correct	false	n/a	n-backMarkers
300.448111	0.000000	1-back	4256.892672	Steps:1 KeyPress:True Matched:False	0	1	true	false	Wrong	false	n/a	n-backMarkers
300.776996	0.004000	dropped_samples	4257.221557	Dropped 1 samples	n/a	n/a	n/a	n/a	n/a	n/a	1	UoHDataOffsetStream
302.149229	0.000000	1-back	4258.593790	Steps:1 KeyPress:False Matched:False	1	1	false	false	Correct	false	n/a	n-backMarkers
303.345413	0.012000	dropped_samples	4259.789974	Dropped 3 samples	n/a	n/a	n/a	n/a	n/a	n/a	3	UoHDataOffsetStream
303.850379	0.000000	1-back	4260.294940	Steps:1 KeyPress:True Matched:False	0	1	true	false	Wrong	false	n/a	n-backMarkers
305.551152	0.000000	1-back	4261.995713	Steps:1 KeyPress:False Matched:True	0	1	false	true	Wrong	false	n/a	n-backMarkers
307.252345	0.000000	1-back	4263.696906	Steps:1 KeyPress:False Matched:True	0	1	false	true	Wrong	false	n/a	n-backMarkers
308.953240	0.000000	1-back	4265.397801	Steps:1 KeyPress:False Matched:False	1	1	false	false	Correct	false	n/a	n-backMarkers
309.800462	0.008000	dropped_samples	4266.245022	Dropped 2 samples	n/a	n/a	n/a	n/a	n/a	n/a	2	UoHDataOffsetStream
310.654048	0.000000	1-back	4267.098609	Steps:1 KeyPress:True Matched:False	0	1	true	false	Wrong	false	n/a	n-backMarkers
312.355252	0.000000	1-back	4268.799812	Steps:1 KeyPress:False Matched:True	0	1	false	true	Wrong	false	n/a	n-backMarkers
314.057046	0.000000	1-back	4270.501607	Steps:1 KeyPress:False Matched:False	1	1	false	false	Correct	false	n/a	n-backMarkers
315.757285	0.000000	1-back	4272.201846	Steps:1 KeyPress:True Matched:False	0	1	true	false	Wrong	false	n/a	n-backMarkers
315.991894	0.004000	dropped_samples	4272.436455	Dropped 1 samples	n/a	n/a	n/a	n/a	n/a	n/a	1	UoHDataOffsetStream
317.458305	0.000000	1-back	4273.902866	Steps:1 KeyPress:False Matched:True	0	1	false	true	Wrong	false	n/a	n-backMarkers
318.747883	0.004000	dropped_samples	4275.192444	Dropped 1 samples	n/a	n/a	n/a	n/a	n/a	n/a	1	UoHDataOffsetStream
318.799492	0.008000	dropped_samples	4275.244052	Dropped 2 samples	n/a	n/a	n/a	n/a	n/a	n/a	2	UoHDataOffsetStream
319.159825	0.000000	1-back	4275.604386	Steps:1 KeyPress:False Matched:True	0	1	false	true	Wrong	false	n/a	n-backMarkers
320.816095	0.004000	dropped_samples	4277.260656	Dropped 1 samples	n/a	n/a	n/a	n/a	n/a	n/a	1	UoHDataOffsetStream
320.861023	0.000000	1-back	4277.305584	Steps:1 KeyPress:False Matched:True	0	1	false	true	Wrong	false	n/a	n-backMarkers
322.563060	0.000000	1-back	4279.007621	Steps:1 KeyPress:True Matched:False	0	1	true	false	Wrong	false	n/a	n-backMarkers
324.058339	0.004000	dropped_samples	4280.502899	Dropped 1 samples	n/a	n/a	n/a	n/a	n/a	n/a	1	UoHDataOffsetStream
324.264256	0.000000	1-back	4280.708817	Steps:1 KeyPress:False Matched:True	0	1	false	true	Wrong	false	n/a	n-backMarkers
325.965145	0.000000	1-back	4282.409706	Steps:1 KeyPress:False Matched:False	1	1	false	false	Correct	false	n/a	n-backMarkers
326.577853	0.004000	dropped_samples	4283.022414	Dropped 1 samples	n/a	n/a	n/a	n/a	n/a	n/a	1	UoHDataOffsetStream
327.666416	0.000000	1-back	4284.110977	Steps:1 KeyPress:True Matched:False	0	1	true	false	Wrong	false	n/a	n-backMarkers
329.358733	0.004000	dropped_samples	4285.803294	Dropped 1 samples	n/a	n/a	n/a	n/a	n/a	n/a	1	UoHDataOffsetStream
329.367170	0.000000	1-back	4285.811731	Steps:1 KeyPress:False Matched:True	0	1	false	true	Wrong	false	n/a	n-backMarkers
329.409881	0.008000	dropped_samples	4285.854442	Dropped 2 samples	n/a	n/a	n/a	n/a	n/a	n/a	2	UoHDataOffsetStream
330.899122	0.004000	dropped_samples	4287.343683	Dropped 1 samples	n/a	n/a	n/a	n/a	n/a	n/a	1	UoHDataOffsetStream
331.068322	0.000000	1-back	4287.512883	Steps:1 KeyPress:False Matched:False	1	1	false	false	Correct	false	n/a	n-backMarkers
332.769157	0.000000	1-back	4289.213718	Steps:1 KeyPress:True Matched:False	0	1	true	false	Wrong	false	n/a	n-backMarkers
332.792756	0.004000	dropped_samples	4289.237317	Dropped 1 samples	n/a	n/a	n/a	n/a	n/a	n/a	1	UoHDataOffsetStream
332.842543	0.008000	dropped_samples	4289.287104	Dropped 2 samples	n/a	n/a	n/a	n/a	n/a	n/a	2	UoHDataOffsetStream
334.470150	0.000000	1-back	4290.914711	Steps:1 KeyPress:False Matched:False	1	1	false	false	Correct	false	n/a	n-backMarkers
335.025164	0.004000	dropped_samples	4291.469725	Dropped 1 samples	n/a	n/a	n/a	n/a	n/a	n/a	1	UoHDataOffsetStream
336.011439	0.024000	dropped_samples	4292.455999	Dropped 6 samples	n/a	n/a	n/a	n/a	n/a	n/a	6	UoHDataOffsetStream
336.171174	0.000000	1-back	4292.615735	Steps:1 KeyPress:True Matched:False	0	1	true	false	Wrong	false	n/a	n-backMarkers
336.299557	0.004000	dropped_samples	4292.744118	Dropped 1 samples	n/a	n/a	n/a	n/a	n/a	n/a	1	UoHDataOffsetStream
337.735076	0.004000	dropped_samples	4294.179637	Dropped 1 samples	n/a	n/a	n/a	n/a	n/a	n/a	1	UoHDataOffsetStream
337.872030	0.000000	1-back	4294.316590	Steps:1 KeyPress:False Matched:True	0	1	false	true	Wrong	false	n/a	n-backMarkers
339.224324	0.016000	dropped_samples	4295.668885	Dropped 4 samples	n/a	n/a	n/a	n/a	n/a	n/a	4	UoHDataOffsetStream
339.488097	0.004000	dropped_samples	4295.932658	Dropped 1 samples	n/a	n/a	n/a	n/a	n/a	n/a	1	UoHDataOffsetStream
339.573222	0.000000	1-back	4296.017783	Steps:1 KeyPress:False Matched:False	1	1	false	false	Correct	false	n/a	n-backMarkers
340.449947	0.004000	dropped_samples	4296.894508	Dropped 1 samples	n/a	n/a	n/a	n/a	n/a	n/a	1	UoHDataOffsetStream
341.274260	0.000000	1-back	4297.718821	Steps:1 KeyPress:True Matched:False	0	1	true	false	Wrong	false	n/a	n-backMarkers
342.583731	0.012000	dropped_samples	4299.028292	Dropped 3 samples	n/a	n/a	n/a	n/a	n/a	n/a	3	UoHDataOffsetStream
342.975278	0.000000	1-back	4299.419839	Steps:1 KeyPress:False Matched:True	0	1	false	true	Wrong	false	n/a	n-backMarkers
344.673567	0.004000	dropped_samples	4301.118128	Dropped 1 samples	n/a	n/a	n/a	n/a	n/a	n/a	1	UoHDataOffsetStream
344.676659	0.000000	1-back	4301.121220	Steps:1 KeyPress:False Matched:False	1	1	false	false	Correct	false	n/a	n-backMarkers
346.377197	0.000000	1-back	4302.821758	Steps:1 KeyPress:True Matched:False	0	1	true	false	Wrong	false	n/a	n-backMarkers
346.519280	0.004000	dropped_samples	4302.963841	Dropped 1 samples	n/a	n/a	n/a	n/a	n/a	n/a	1	UoHDataOffsetStream
348.079042	0.000000	1-back	4304.523603	Steps:1 KeyPress:False Matched:True	0	1	false	true	Wrong	false	n/a	n-backMarkers
349.779827	0.000000	1-back	4306.224388	Steps:1 KeyPress:False Matched:True	0	1	false	true	Wrong	false	n/a	n-backMarkers
351.480142	0.000000	1-back	4307.924703	Steps:1 KeyPress:False Matched:False	1	1	false	false	Correct	false	n/a	n-backMarkers
352.715580	0.004000	dropped_samples	4309.160141	Dropped 1 samples	n/a	n/a	n/a	n/a	n/a	n/a	1	UoHDataOffsetStream
353.181076	0.000000	1-back	4309.625636	Steps:1 KeyPress:True Matched:False	0	1	true	false	Wrong	false	n/a	n-backMarkers
354.248806	0.004000	dropped_samples	4310.693367	Dropped 1 samples	n/a	n/a	n/a	n/a	n/a	n/a	1	UoHDataOffsetStream
354.882108	0.000000	1-back	4311.326669	Steps:1 KeyPress:False Matched:False	1	1	false	false	Correct	false	n/a	n-backMarkers
354.898344	0.004000	dropped_samples	4311.342905	Dropped 1 samples	n/a	n/a	n/a	n/a	n/a	n/a	1	UoHDataOffsetStream
356.553516	0.012000	dropped_samples	4312.998077	Dropped 3 samples	n/a	n/a	n/a	n/a	n/a	n/a	3	UoHDataOffsetStream
356.583143	0.000000	1-back	4313.027704	Steps:1 KeyPress:True Matched:False	0	1	true	false	Wrong	false	n/a	n-backMarkers
358.283596	0.000000	1-back	4314.728157	Steps:1 KeyPress:False Matched:True	0	1	false	true	Wrong	false	n/a	n-backMarkers
359.839661	0.004000	dropped_samples	4316.284222	Dropped 1 samples	n/a	n/a	n/a	n/a	n/a	n/a	1	UoHDataOffsetStream
359.985307	0.000000	1-back	4316.429867	Steps:1 KeyPress:False Matched:True	0	1	false	true	Wrong	false	n/a	n-backMarkers
360.777134	0.012000	dropped_samples	4317.221695	Dropped 3 samples	n/a	n/a	n/a	n/a	n/a	n/a	3	UoHDataOffsetStream
361.686600	0.000000	1-back	4318.131160	Steps:1 KeyPress:False Matched:False	1	1	false	false	Correct	false	n/a	n-backMarkers
363.387058	0.000000	1-back	4319.831618	Steps:1 KeyPress:True Matched:False	0	1	true	false	Wrong	false	n/a	n-backMarkers
365.088875	0.000000	1-back	4321.533436	Steps:1 KeyPress:False Matched:False	1	1	false	false	Correct	false	n/a	n-backMarkers
366.790020	0.000000	1-back	4323.234581	Steps:1 KeyPress:False Matched:False	1	1	false	false	Correct	false	n/a	n-backMarkers
368.490090	0.000000	1-back	4324.934651	Steps:1 KeyPress:True Matched:True	1	1	true	true	Correct	false	n/a	n-backMarkers
370.191113	0.000000	1-back	4326.635673	Steps:1 KeyPress:False Matched:False	1	1	false	false	Correct	false	n/a	n-backMarkers
371.892089	0.000000	1-back	4328.336649	Steps:1 KeyPress:True Matched:False	0	1	true	false	Wrong	false	n/a	n-backMarkers
373.592687	0.000000	1-back	4330.037248	Steps:1 KeyPress:False Matched:True	0	1	false	true	Wrong	false	n/a	n-backMarkers
375.293676	0.000000	1-back	4331.738237	Steps:1 KeyPress:False Matched:False	1	1	false	false	Correct	false	n/a	n-backMarkers
376.763481	0.004000	dropped_samples	4333.208042	Dropped 1 samples	n/a	n/a	n/a	n/a	n/a	n/a	1	UoHDataOffsetStream
376.994518	0.000000	1-back	4333.439079	Steps:1 KeyPress:True Matched:False	0	1	true	false	Wrong	false	n/a	n-backMarkers
377.530188	0.004000	dropped_samples	4333.974748	Dropped 1 samples	n/a	n/a	n/a	n/a	n/a	n/a	1	UoHDataOffsetStream
378.695978	0.000000	1-back	4335.140539	Steps:1 KeyPress:False Matched:False	1	1	false	false	Correct	false	n/a	n-backMarkers
380.397200	0.000000	1-back	4336.841761	Steps:1 KeyPress:True Matched:False	0	1	true	false	Wrong	false	n/a	n-backMarkers
381.202093	0.008000	dropped_samples	4337.646654	Dropped 2 samples	n/a	n/a	n/a	n/a	n/a	n/a	2	UoHDataOffsetStream
381.392420	0.004000	dropped_samples	4337.836981	Dropped 1 samples	n/a	n/a	n/a	n/a	n/a	n/a	1	UoHDataOffsetStream
382.099089	0.000000	1-back	4338.543650	Steps:1 KeyPress:False Matched:False	1	1	false	false	Correct	false	n/a	n-backMarkers
383.800202	0.000000	1-back	4340.244763	Steps:1 KeyPress:True Matched:False	0	1	true	false	Wrong	false	n/a	n-backMarkers
385.502321	0.000000	1-back	4341.946882	Steps:1 KeyPress:False Matched:True	0	1	false	true	Wrong	false	n/a	n-backMarkers
387.202130	0.000000	1-back	4343.646691	Steps:1 KeyPress:False Matched:True	0	1	false	true	Wrong	false	n/a	n-backMarkers
387.706055	0.012000	dropped_samples	4344.150616	Dropped 3 samples	n/a	n/a	n/a	n/a	n/a	n/a	3	UoHDataOffsetStream
388.903257	0.000000	1-back	4345.347818	Steps:1 KeyPress:False Matched:False	1	1	false	false	Correct	false	n/a	n-backMarkers
390.604069	0.000000	1-back	4347.048629	Steps:1 KeyPress:True Matched:False	0	1	true	false	Wrong	false	n/a	n-backMarkers
392.304973	0.000000	1-back	4348.749534	Steps:1 KeyPress:False Matched:True	0	1	false	true	Wrong	false	n/a	n-backMarkers
394.005054	0.000000	1-back	4350.449615	Steps:1 KeyPress:False Matched:False	1	1	false	false	Correct	false	n/a	n-backMarkers
395.705843	0.000000	1-back	4352.150403	Steps:1 KeyPress:True Matched:False	0	1	true	false	Wrong	false	n/a	n-backMarkers
397.329972	0.004000	dropped_samples	4353.774533	Dropped 1 samples	n/a	n/a	n/a	n/a	n/a	n/a	1	UoHDataOffsetStream
397.406954	0.000000	1-back	4353.851515	Steps:1 KeyPress:False Matched:False	1	1	false	false	Correct	false	n/a	n-backMarkers
397.740119	0.012000	dropped_samples	4354.184679	Dropped 3 samples	n/a	n/a	n/a	n/a	n/a	n/a	3	UoHDataOffsetStream
398.843618	0.012000	dropped_samples	4355.288178	Dropped 3 samples	n/a	n/a	n/a	n/a	n/a	n/a	3	UoHDataOffsetStream
399.108058	0.000000	1-back	4355.552618	Steps:1 KeyPress:True Matched:False	0	1	true	false	Wrong	false	n/a	n-backMarkers
399.512579	0.004000	dropped_samples	4355.957140	Dropped 1 samples	n/a	n/a	n/a	n/a	n/a	n/a	1	UoHDataOffsetStream
400.809881	0.000000	1-back	4357.254442	Steps:1 KeyPress:True Matched:True	1	1	true	true	Correct	false	n/a	n-backMarkers
402.511059	0.000000	1-back	4358.955620	Steps:1 KeyPress:False Matched:True	0	1	false	true	Wrong	false	n/a	n-backMarkers
403.594647	0.004000	dropped_samples	4360.039208	Dropped 1 samples	n/a	n/a	n/a	n/a	n/a	n/a	1	UoHDataOffsetStream
404.212078	0.000000	1-back	4360.656639	Steps:1 KeyPress:False Matched:False	1	1	false	false	Correct	false	n/a	n-backMarkers
404.986261	0.004000	dropped_samples	4361.430822	Dropped 1 samples	n/a	n/a	n/a	n/a	n/a	n/a	1	UoHDataOffsetStream
405.912949	0.000000	1-back	4362.357510	Steps:1 KeyPress:False Matched:False	1	1	false	false	Correct	false	n/a	n-backMarkers
407.613985	0.000000	1-back	4364.058546	Steps:1 KeyPress:False Matched:False	1	1	false	false	Correct	false	n/a	n-backMarkers
409.314493	0.000000	1-back	4365.759054	Steps:1 KeyPress:True Matched:False	0	1	true	false	Wrong	false	n/a	n-backMarkers
409.976467	0.004000	dropped_samples	4366.421028	Dropped 1 samples	n/a	n/a	n/a	n/a	n/a	n/a	1	UoHDataOffsetStream
410.962788	0.008000	dropped_samples	4367.407349	Dropped 2 samples	n/a	n/a	n/a	n/a	n/a	n/a	2	UoHDataOffsetStream
411.015037	0.000000	1-back	4367.459597	Steps:1 KeyPress:False Matched:True	0	1	false	true	Wrong	false	n/a	n-backMarkers
412.715996	0.000000	1-back	4369.160557	Steps:1 KeyPress:False Matched:True	0	1	false	true	Wrong	false	n/a	n-backMarkers
414.416332	0.000000	1-back	4370.860893	Steps:1 KeyPress:False Matched:False	1	1	false	false	Correct	false	n/a	n-backMarkers
423.117711	0.000000	2-back	4379.562272	Steps:2 KeyPress:False Matched:False	1	2	false	false	Correct	false	n/a	n-backMarkers
424.819131	0.000000	2-back	4381.263692	Steps:2 KeyPress:False Matched:False	1	2	false	false	Correct	false	n/a	n-backMarkers
425.577127	0.012000	dropped_samples	4382.021688	Dropped 3 samples	n/a	n/a	n/a	n/a	n/a	n/a	3	UoHDataOffsetStream
426.519825	0.000000	2-back	4382.964386	Steps:2 KeyPress:False Matched:False	1	2	false	false	Correct	false	n/a	n-backMarkers
428.219947	0.000000	2-back	4384.664508	Steps:2 KeyPress:False Matched:False	1	2	false	false	Correct	false	n/a	n-backMarkers
428.628874	0.020000	dropped_samples	4385.073435	Dropped 5 samples	n/a	n/a	n/a	n/a	n/a	n/a	5	UoHDataOffsetStream
429.898383	0.004000	dropped_samples	4386.342944	Dropped 1 samples	n/a	n/a	n/a	n/a	n/a	n/a	1	UoHDataOffsetStream
429.920966	0.000000	2-back	4386.365527	Steps:2 KeyPress:False Matched:False	1	2	false	false	Correct	false	n/a	n-backMarkers
430.376919	0.004000	dropped_samples	4386.821480	Dropped 1 samples	n/a	n/a	n/a	n/a	n/a	n/a	1	UoHDataOffsetStream
430.713827	0.008000	dropped_samples	4387.158388	Dropped 2 samples	n/a	n/a	n/a	n/a	n/a	n/a	2	UoHDataOffsetStream
431.622286	0.000000	2-back	4388.066847	Steps:2 KeyPress:True Matched:False	0	2	true	false	Wrong	false	n/a	n-backMarkers
433.323318	0.000000	2-back	4389.767878	Steps:2 KeyPress:False Matched:True	0	2	false	true	Wrong	false	n/a	n-backMarkers
435.024237	0.000000	2-back	4391.468797	Steps:2 KeyPress:False Matched:False	1	2	false	false	Correct	false	n/a	n-backMarkers
436.138658	0.004000	dropped_samples	4392.583219	Dropped 1 samples	n/a	n/a	n/a	n/a	n/a	n/a	1	UoHDataOffsetStream
436.568336	0.004000	dropped_samples	4393.012896	Dropped 1 samples	n/a	n/a	n/a	n/a	n/a	n/a	1	UoHDataOffsetStream
436.725199	0.000000	2-back	4393.169760	Steps:2 KeyPress:True Matched:True	1	2	true	true	Correct	false	n/a	n-backMarkers
437.720702	0.012000	dropped_samples	4394.165262	Dropped 3 samples	n/a	n/a	n/a	n/a	n/a	n/a	3	UoHDataOffsetStream
438.426856	0.000000	2-back	4394.871417	Steps:2 KeyPress:False Matched:False	1	2	false	false	Correct	false	n/a	n-backMarkers
440.127437	0.000000	2-back	4396.571997	Steps:2 KeyPress:False Matched:False	1	2	false	false	Correct	false	n/a	n-backMarkers
440.748026	0.004000	dropped_samples	4397.192587	Dropped 1 samples	n/a	n/a	n/a	n/a	n/a	n/a	1	UoHDataOffsetStream
441.636697	0.004000	dropped_samples	4398.081258	Dropped 1 samples	n/a	n/a	n/a	n/a	n/a	n/a	1	UoHDataOffsetStream
441.828861	0.000000	2-back	4398.273422	Steps:2 KeyPress:True Matched:False	0	2	true	false	Wrong	false	n/a	n-backMarkers
443.529166	0.000000	2-back	4399.973727	Steps:2 KeyPress:False Matched:False	1	2	false	false	Correct	false	n/a	n-backMarkers
443.746135	0.024000	dropped_samples	4400.190696	Dropped 6 samples	n/a	n/a	n/a	n/a	n/a	n/a	6	UoHDataOffsetStream
445.229889	0.000000	2-back	4401.674449	Steps:2 KeyPress:False Matched:False	1	2	false	false	Correct	false	n/a	n-backMarkers
445.352544	0.004000	dropped_samples	4401.797105	Dropped 1 samples	n/a	n/a	n/a	n/a	n/a	n/a	1	UoHDataOffsetStream
446.890625	0.004000	dropped_samples	4403.335185	Dropped 1 samples	n/a	n/a	n/a	n/a	n/a	n/a	1	UoHDataOffsetStream
446.930354	0.000000	2-back	4403.374915	Steps:2 KeyPress:True Matched:False	0	2	true	false	Wrong	false	n/a	n-backMarkers
448.630918	0.000000	2-back	4405.075479	Steps:2 KeyPress:False Matched:True	0	2	false	true	Wrong	false	n/a	n-backMarkers
449.722690	0.004000	dropped_samples	4406.167251	Dropped 1 samples	n/a	n/a	n/a	n/a	n/a	n/a	1	UoHDataOffsetStream
450.083980	0.004000	dropped_samples	4406.528541	Dropped 1 samples	n/a	n/a	n/a	n/a	n/a	n/a	1	UoHDataOffsetStream
450.331902	0.000000	2-back	4406.776463	Steps:2 KeyPress:False Matched:False	1	2	false	false	Correct	false	n/a	n-backMarkers
452.032835	0.000000	2-back	4408.477396	Steps:2 KeyPress:False Matched:True	0	2	false	true	Wrong	false	n/a	n-backMarkers
453.734346	0.000000	2-back	4410.178907	Steps:2 KeyPress:False Matched:False	1	2	false	false	Correct	false	n/a	n-backMarkers
454.332035	0.004000	dropped_samples	4410.776596	Dropped 1 samples	n/a	n/a	n/a	n/a	n/a	n/a	1	UoHDataOffsetStream
455.434909	0.000000	2-back	4411.879469	Steps:2 KeyPress:True Matched:False	0	2	true	false	Wrong	false	n/a	n-backMarkers
456.104591	0.004000	dropped_samples	4412.549151	Dropped 1 samples	n/a	n/a	n/a	n/a	n/a	n/a	1	UoHDataOffsetStream
457.135296	0.000000	2-back	4413.579857	Steps:2 KeyPress:False Matched:False	1	2	false	false	Correct	false	n/a	n-backMarkers
458.835725	0.000000	2-back	4415.280286	Steps:2 KeyPress:False Matched:False	1	2	false	false	Correct	false	n/a	n-backMarkers
460.535982	0.000000	2-back	4416.980542	Steps:2 KeyPress:True Matched:False	0	2	true	false	Wrong	false	n/a	n-backMarkers
462.203224	0.012000	dropped_samples	4418.647785	Dropped 3 samples	n/a	n/a	n/a	n/a	n/a	n/a	3	UoHDataOffsetStream
462.237505	0.000000	2-back	4418.682066	Steps:2 KeyPress:False Matched:True	0	2	false	true	Wrong	false	n/a	n-backMarkers
463.404315	0.004000	dropped_samples	4419.848876	Dropped 1 samples	n/a	n/a	n/a	n/a	n/a	n/a	1	UoHDataOffsetStream
463.692457	0.012000	dropped_samples	4420.137018	Dropped 3 samples	n/a	n/a	n/a	n/a	n/a	n/a	3	UoHDataOffsetStream
463.938819	0.000000	2-back	4420.383380	Steps:2 KeyPress:False Matched:False	1	2	false	false	Correct	false	n/a	n-backMarkers
464.170944	0.008000	dropped_samples	4420.615504	Dropped 2 samples	n/a	n/a	n/a	n/a	n/a	n/a	2	UoHDataOffsetStream
465.640087	0.000000	2-back	4422.084648	Steps:2 KeyPress:False Matched:True	0	2	false	true	Wrong	false	n/a	n-backMarkers
467.341192	0.000000	2-back	4423.785753	Steps:2 KeyPress:False Matched:False	1	2	false	false	Correct	false	n/a	n-backMarkers
469.042318	0.000000	2-back	4425.486879	Steps:2 KeyPress:False Matched:False	1	2	false	false	Correct	false	n/a	n-backMarkers
470.742372	0.000000	2-back	4427.186933	Steps:2 KeyPress:True Matched:False	0	2	true	false	Wrong	false	n/a	n-backMarkers
471.612343	0.008000	dropped_samples	4428.056904	Dropped 2 samples	n/a	n/a	n/a	n/a	n/a	n/a	2	UoHDataOffsetStream
472.444189	0.000000	2-back	4428.888750	Steps:2 KeyPress:False Matched:True	0	2	false	true	Wrong	false	n/a	n-backMarkers
473.316511	0.004000	dropped_samples	4429.761072	Dropped 1 samples	n/a	n/a	n/a	n/a	n/a	n/a	1	UoHDataOffsetStream
474.145071	0.000000	2-back	4430.589632	Steps:2 KeyPress:False Matched:False	1	2	false	false	Correct	false	n/a	n-backMarkers
474.708115	0.004000	dropped_samples	4431.152676	Dropped 1 samples	n/a	n/a	n/a	n/a	n/a	n/a	1	UoHDataOffsetStream
475.846117	0.000000	2-back	4432.290678	Steps:2 KeyPress:False Matched:True	0	2	false	true	Wrong	false	n/a	n-backMarkers
476.099656	0.004000	dropped_samples	4432.544216	Dropped 1 samples	n/a	n/a	n/a	n/a	n/a	n/a	1	UoHDataOffsetStream
477.547214	0.000000	2-back	4433.991774	Steps:2 KeyPress:True Matched:False	0	2	true	false	Wrong	false	n/a	n-backMarkers
479.247857	0.000000	2-back	4435.692418	Steps:2 KeyPress:False Matched:False	1	2	false	false	Correct	false	n/a	n-backMarkers
480.948957	0.000000	2-back	4437.393518	Steps:2 KeyPress:False Matched:False	1	2	false	false	Correct	false	n/a	n-backMarkers
482.650327	0.000000	2-back	4439.094887	Steps:2 KeyPress:False Matched:False	1	2	false	false	Correct	false	n/a	n-backMarkers
482.842867	0.012000	dropped_samples	4439.287428	Dropped 3 samples	n/a	n/a	n/a	n/a	n/a	n/a	3	UoHDataOffsetStream
484.351619	0.000000	2-back	4440.796180	Steps:2 KeyPress:False Matched:False	1	2	false	false	Correct	false	n/a	n-backMarkers
486.052006	0.000000	2-back	4442.496567	Steps:2 KeyPress:True Matched:False	0	2	true	false	Wrong	false	n/a	n-backMarkers
487.754050	0.000000	2-back	4444.198611	Steps:2 KeyPress:False Matched:True	0	2	false	true	Wrong	false	n/a	n-backMarkers
489.466058	0.000000	2-back	4445.910619	Steps:2 KeyPress:False Matched:False	1	2	false	false	Correct	false	n/a	n-backMarkers
491.075299	0.012000	dropped_samples	4447.519860	Dropped 3 samples	n/a	n/a	n/a	n/a	n/a	n/a	3	UoHDataOffsetStream
491.167030	0.000000	2-back	4447.611591	Steps:2 KeyPress:False Matched:True	0	2	false	true	Wrong	false	n/a	n-backMarkers
492.369259	0.012000	dropped_samples	4448.813820	Dropped 3 samples	n/a	n/a	n/a	n/a	n/a	n/a	3	UoHDataOffsetStream
492.613408	0.004000	dropped_samples	4449.057968	Dropped 1 samples	n/a	n/a	n/a	n/a	n/a	n/a	1	UoHDataOffsetStream
492.867814	0.000000	2-back	4449.312374	Steps:2 KeyPress:False Matched:False	1	2	false	false	Correct	false	n/a	n-backMarkers
494.567942	0.000000	2-back	4451.012503	Steps:2 KeyPress:False Matched:False	1	2	false	false	Correct	false	n/a	n-backMarkers
495.250116	0.004000	dropped_samples	4451.694677	Dropped 1 samples	n/a	n/a	n/a	n/a	n/a	n/a	1	UoHDataOffsetStream
496.269287	0.000000	2-back	4452.713847	Steps:2 KeyPress:True Matched:False	0	2	true	false	Wrong	false	n/a	n-backMarkers
497.970163	0.000000	2-back	4454.414724	Steps:2 KeyPress:False Matched:True	0	2	false	true	Wrong	false	n/a	n-backMarkers
498.853625	0.004000	dropped_samples	4455.298186	Dropped 1 samples	n/a	n/a	n/a	n/a	n/a	n/a	1	UoHDataOffsetStream
499.185748	0.008000	dropped_samples	4455.630309	Dropped 2 samples	n/a	n/a	n/a	n/a	n/a	n/a	2	UoHDataOffsetStream
499.670832	0.000000	2-back	4456.115393	Steps:2 KeyPress:False Matched:False	1	2	false	false	Correct	false	n/a	n-backMarkers
500.313623	0.004000	dropped_samples	4456.758184	Dropped 1 samples	n/a	n/a	n/a	n/a	n/a	n/a	1	UoHDataOffsetStream
501.371923	0.000000	2-back	4457.816484	Steps:2 KeyPress:False Matched:False	1	2	false	false	Correct	false	n/a	n-backMarkers
502.090934	0.008000	dropped_samples	4458.535495	Dropped 2 samples	n/a	n/a	n/a	n/a	n/a	n/a	2	UoHDataOffsetStream
503.072545	0.000000	2-back	4459.517105	Steps:2 KeyPress:False Matched:False	1	2	false	false	Correct	false	n/a	n-backMarkers
504.773031	0.000000	2-back	4461.217592	Steps:2 KeyPress:False Matched:True	0	2	false	true	Wrong	false	n/a	n-backMarkers
506.473643	0.000000	2-back	4462.918204	Steps:2 KeyPress:False Matched:False	1	2	false	false	Correct	false	n/a	n-backMarkers
506.602695	0.004000	dropped_samples	4463.047256	Dropped 1 samples	n/a	n/a	n/a	n/a	n/a	n/a	1	UoHDataOffsetStream
508.174915	0.000000	2-back	4464.619476	Steps:2 KeyPress:True Matched:True	1	2	true	true	Correct	false	n/a	n-backMarkers
508.457053	0.008000	dropped_samples	4464.901614	Dropped 2 samples	n/a	n/a	n/a	n/a	n/a	n/a	2	UoHDataOffsetStream
508.497229	0.012000	dropped_samples	4464.941789	Dropped 3 samples	n/a	n/a	n/a	n/a	n/a	n/a	3	UoHDataOffsetStream
508.809796	0.008000	dropped_samples	4465.254357	Dropped 2 samples	n/a	n/a	n/a	n/a	n/a	n/a	2	UoHDataOffsetStream
509.875914	0.000000	2-back	4466.320475	Steps:2 KeyPress:False Matched:False	1	2	false	false	Correct	false	n/a	n-backMarkers
511.285323	0.004000	dropped_samples	4467.729884	Dropped 1 samples	n/a	n/a	n/a	n/a	n/a	n/a	1	UoHDataOffsetStream
511.577392	0.000000	2-back	4468.021953	Steps:2 KeyPress:False Matched:False	1	2	false	false	Correct	false	n/a	n-backMarkers
512.388834	0.004000	dropped_samples	4468.833395	Dropped 1 samples	n/a	n/a	n/a	n/a	n/a	n/a	1	UoHDataOffsetStream
513.277689	0.000000	2-back	4469.722249	Steps:2 KeyPress:False Matched:False	1	2	false	false	Correct	false	n/a	n-backMarkers
514.332175	0.004000	dropped_samples	4470.776736	Dropped 1 samples	n/a	n/a	n/a	n/a	n/a	n/a	1	UoHDataOffsetStream
514.978903	0.000000	2-back	4471.423464	Steps:2 KeyPress:True Matched:False	0	2	true	false	Wrong	false	n/a	n-backMarkers
516.680227	0.000000	2-back	4473.124788	Steps:2 KeyPress:False Matched:True	0	2	false	true	Wrong	false	n/a	n-backMarkers
518.382158	0.000000	2-back	4474.826719	Steps:2 KeyPress:False Matched:False	1	2	false	false	Correct	false	n/a	n-backMarkers
518.604669	0.004000	dropped_samples	4475.049230	Dropped 1 samples	n/a	n/a	n/a	n/a	n/a	n/a	1	UoHDataOffsetStream
519.083205	0.004000	dropped_samples	4475.527766	Dropped 1 samples	n/a	n/a	n/a	n/a	n/a	n/a	1	UoHDataOffsetStream
519.781750	0.004000	dropped_samples	4476.226311	Dropped 1 samples	n/a	n/a	n/a	n/a	n/a	n/a	1	UoHDataOffsetStream
520.082876	0.000000	2-back	4476.527437	Steps:2 KeyPress:True Matched:True	1	2	true	true	Correct	false	n/a	n-backMarkers
520.499189	0.004000	dropped_samples	4476.943750	Dropped 1 samples	n/a	n/a	n/a	n/a	n/a	n/a	1	UoHDataOffsetStream
521.784542	0.000000	2-back	4478.229103	Steps:2 KeyPress:False Matched:False	1	2	false	false	Correct	false	n/a	n-backMarkers
523.485083	0.000000	2-back	4479.929644	Steps:2 KeyPress:False Matched:False	1	2	false	false	Correct	false	n/a	n-backMarkers
525.186148	0.000000	2-back	4481.630708	Steps:2 KeyPress:True Matched:False	0	2	true	false	Wrong	false	n/a	n-backMarkers
526.886477	0.000000	2-back	4483.331038	Steps:2 KeyPress:False Matched:False	1	2	false	false	Correct	false	n/a	n-backMarkers
526.929910	0.016000	dropped_samples	4483.374471	Dropped 4 samples	n/a	n/a	n/a	n/a	n/a	n/a	4	UoHDataOffsetStream
528.587456	0.000000	2-back	4485.032017	Steps:2 KeyPress:False Matched:False	1	2	false	false	Correct	false	n/a	n-backMarkers
530.288237	0.000000	2-back	4486.732798	Steps:2 KeyPress:True Matched:False	0	2	true	false	Wrong	false	n/a	n-backMarkers
531.989381	0.000000	2-back	4488.433942	Steps:2 KeyPress:False Matched:False	1	2	false	false	Correct	false	n/a	n-backMarkers
532.090997	0.024000	dropped_samples	4488.535558	Dropped 6 samples	n/a	n/a	n/a	n/a	n/a	n/a	6	UoHDataOffsetStream
533.690052	0.000000	2-back	4490.134613	Steps:2 KeyPress:False Matched:False	1	2	false	false	Correct	false	n/a	n-backMarkers
534.229738	0.004000	dropped_samples	4490.674299	Dropped 1 samples	n/a	n/a	n/a	n/a	n/a	n/a	1	UoHDataOffsetStream
535.391189	0.000000	2-back	4491.835749	Steps:2 KeyPress:False Matched:False	1	2	false	false	Correct	false	n/a	n-backMarkers
537.092841	0.000000	2-back	4493.537401	Steps:2 KeyPress:True Matched:False	0	2	true	false	Wrong	false	n/a	n-backMarkers
538.793027	0.000000	2-back	4495.237587	Steps:2 KeyPress:False Matched:False	1	2	false	false	Correct	false	n/a	n-backMarkers
539.483650	0.008000	dropped_samples	4495.928211	Dropped 2 samples	n/a	n/a	n/a	n/a	n/a	n/a	2	UoHDataOffsetStream
540.372289	0.004000	dropped_samples	4496.816850	Dropped 1 samples	n/a	n/a	n/a	n/a	n/a	n/a	1	UoHDataOffsetStream
540.494690	0.000000	2-back	4496.939251	Steps:2 KeyPress:True Matched:False	0	2	true	false	Wrong	false	n/a	n-backMarkers
541.641847	0.004000	dropped_samples	4498.086407	Dropped 1 samples	n/a	n/a	n/a	n/a	n/a	n/a	1	UoHDataOffsetStream
541.763881	0.004000	dropped_samples	4498.208442	Dropped 1 samples	n/a	n/a	n/a	n/a	n/a	n/a	1	UoHDataOffsetStream
542.027596	0.004000	dropped_samples	4498.472157	Dropped 1 samples	n/a	n/a	n/a	n/a	n/a	n/a	1	UoHDataOffsetStream
542.195547	0.000000	2-back	4498.640107	Steps:2 KeyPress:False Matched:True	0	2	false	true	Wrong	false	n/a	n-backMarkers
543.179910	0.012000	dropped_samples	4499.624471	Dropped 3 samples	n/a	n/a	n/a	n/a	n/a	n/a	3	UoHDataOffsetStream
543.896562	0.000000	2-back	4500.341123	Steps:2 KeyPress:True Matched:False	0	2	true	false	Wrong	false	n/a	n-backMarkers
545.597759	0.000000	2-back	4502.042319	Steps:2 KeyPress:False Matched:False	1	2	false	false	Correct	false	n/a	n-backMarkers
546.514861	0.012000	dropped_samples	4502.959421	Dropped 3 samples	n/a	n/a	n/a	n/a	n/a	n/a	3	UoHDataOffsetStream
547.298251	0.000000	2-back	4503.742811	Steps:2 KeyPress:True Matched:True	1	2	true	true	Correct	false	n/a	n-backMarkers
547.501250	0.012000	dropped_samples	4503.945811	Dropped 3 samples	n/a	n/a	n/a	n/a	n/a	n/a	3	UoHDataOffsetStream
548.997927	0.000000	2-back	4505.442488	Steps:2 KeyPress:False Matched:False	1	2	false	false	Correct	false	n/a	n-backMarkers
549.083269	0.004000	dropped_samples	4505.527830	Dropped 1 samples	n/a	n/a	n/a	n/a	n/a	n/a	1	UoHDataOffsetStream
550.698391	0.000000	2-back	4507.142952	Steps:2 KeyPress:False Matched:False	1	2	false	false	Correct	false	n/a	n-backMarkers
551.485615	0.004000	dropped_samples	4507.930176	Dropped 1 samples	n/a	n/a	n/a	n/a	n/a	n/a	1	UoHDataOffsetStream
552.398960	0.000000	2-back	4508.843521	Steps:2 KeyPress:True Matched:False	0	2	true	false	Wrong	false	n/a	n-backMarkers
554.100808	0.000000	2-back	4510.545369	Steps:2 KeyPress:False Matched:False	1	2	false	false	Correct	false	n/a	n-backMarkers
554.146726	0.004000	dropped_samples	4510.591287	Dropped 1 samples	n/a	n/a	n/a	n/a	n/a	n/a	1	UoHDataOffsetStream
555.802871	0.000000	2-back	4512.247431	Steps:2 KeyPress:False Matched:False	1	2	false	false	Correct	false	n/a	n-backMarkers
556.187789	0.004000	dropped_samples	4512.632350	Dropped 1 samples	n/a	n/a	n/a	n/a	n/a	n/a	1	UoHDataOffsetStream
557.503833	0.000000	2-back	4513.948394	Steps:2 KeyPress:True Matched:False	0	2	true	false	Wrong	false	n/a	n-backMarkers
557.554973	0.004000	dropped_samples	4513.999534	Dropped 1 samples	n/a	n/a	n/a	n/a	n/a	n/a	1	UoHDataOffsetStream
558.756177	0.004000	dropped_samples	4515.200738	Dropped 1 samples	n/a	n/a	n/a	n/a	n/a	n/a	1	UoHDataOffsetStream
559.205518	0.000000	2-back	4515.650079	Steps:2 KeyPress:False Matched:True	0	2	false	true	Wrong	false	n/a	n-backMarkers
560.797169	0.008000	dropped_samples	4517.241730	Dropped 2 samples	n/a	n/a	n/a	n/a	n/a	n/a	2	UoHDataOffsetStream
560.906744	0.000000	2-back	4517.351305	Steps:2 KeyPress:False Matched:False	1	2	false	false	Correct	false	n/a	n-backMarkers
562.606764	0.000000	2-back	4519.051325	Steps:2 KeyPress:False Matched:False	1	2	false	false	Correct	false	n/a	n-backMarkers
563.433896	0.004000	dropped_samples	4519.878457	Dropped 1 samples	n/a	n/a	n/a	n/a	n/a	n/a	1	UoHDataOffsetStream
563.721947	0.004000	dropped_samples	4520.166508	Dropped 1 samples	n/a	n/a	n/a	n/a	n/a	n/a	1	UoHDataOffsetStream
563.990477	0.004000	dropped_samples	4520.435038	Dropped 1 samples	n/a	n/a	n/a	n/a	n/a	n/a	1	UoHDataOffsetStream
564.307778	0.000000	2-back	4520.752339	Steps:2 KeyPress:True Matched:False	0	2	true	false	Wrong	false	n/a	n-backMarkers
566.008820	0.000000	2-back	4522.453381	Steps:2 KeyPress:False Matched:False	1	2	false	false	Correct	false	n/a	n-backMarkers
567.709809	0.000000	2-back	4524.154370	Steps:2 KeyPress:False Matched:False	1	2	false	false	Correct	false	n/a	n-backMarkers
569.410663	0.000000	2-back	4525.855224	Steps:2 KeyPress:True Matched:False	0	2	true	false	Wrong	false	n/a	n-backMarkers
569.845023	0.008000	dropped_samples	4526.289584	Dropped 2 samples	n/a	n/a	n/a	n/a	n/a	n/a	2	UoHDataOffsetStream
569.962213	0.004000	dropped_samples	4526.406773	Dropped 1 samples	n/a	n/a	n/a	n/a	n/a	n/a	1	UoHDataOffsetStream
571.111407	0.000000	2-back	4527.555967	Steps:2 KeyPress:False Matched:False	1	2	false	false	Correct	false	n/a	n-backMarkers
572.242535	0.004000	dropped_samples	4528.687096	Dropped 1 samples	n/a	n/a	n/a	n/a	n/a	n/a	1	UoHDataOffsetStream
572.813002	0.000000	2-back	4529.257562	Steps:2 KeyPress:False Matched:False	1	2	false	false	Correct	false	n/a	n-backMarkers
574.513759	0.000000	2-back	4530.958320	Steps:2 KeyPress:True Matched:False	0	2	true	false	Wrong	false	n/a	n-backMarkers
574.810857	0.004000	dropped_samples	4531.255418	Dropped 1 samples	n/a	n/a	n/a	n/a	n/a	n/a	1	UoHDataOffsetStream
576.085263	0.004000	dropped_samples	4532.529824	Dropped 1 samples	n/a	n/a	n/a	n/a	n/a	n/a	1	UoHDataOffsetStream
576.215876	0.000000	2-back	4532.660437	Steps:2 KeyPress:False Matched:False	1	2	false	false	Correct	false	n/a	n-backMarkers
577.916999	0.000000	2-back	4534.361560	Steps:2 KeyPress:False Matched:False	1	2	false	false	Correct	false	n/a	n-backMarkers
577.931036	0.012000	dropped_samples	4534.375597	Dropped 3 samples	n/a	n/a	n/a	n/a	n/a	n/a	3	UoHDataOffsetStream
579.617839	0.000000	2-back	4536.062400	Steps:2 KeyPress:True Matched:False	0	2	true	false	Wrong	false	n/a	n-backMarkers
581.318898	0.000000	2-back	4537.763459	Steps:2 KeyPress:False Matched:False	1	2	false	false	Correct	false	n/a	n-backMarkers
582.130184	0.012000	dropped_samples	4538.574745	Dropped 3 samples	n/a	n/a	n/a	n/a	n/a	n/a	3	UoHDataOffsetStream
582.706406	0.012000	dropped_samples	4539.150967	Dropped 3 samples	n/a	n/a	n/a	n/a	n/a	n/a	3	UoHDataOffsetStream
583.019766	0.000000	2-back	4539.464327	Steps:2 KeyPress:False Matched:False	1	2	false	false	Correct	false	n/a	n-backMarkers
583.814765	0.004000	dropped_samples	4540.259326	Dropped 1 samples	n/a	n/a	n/a	n/a	n/a	n/a	1	UoHDataOffsetStream
584.556972	0.012000	dropped_samples	4541.001533	Dropped 3 samples	n/a	n/a	n/a	n/a	n/a	n/a	3	UoHDataOffsetStream
584.721758	0.000000	2-back	4541.166319	Steps:2 KeyPress:True Matched:False	0	2	true	false	Wrong	false	n/a	n-backMarkers
586.422085	0.000000	2-back	4542.866646	Steps:2 KeyPress:False Matched:True	0	2	false	true	Wrong	false	n/a	n-backMarkers
587.725977	0.004000	dropped_samples	4544.170538	Dropped 1 samples	n/a	n/a	n/a	n/a	n/a	n/a	1	UoHDataOffsetStream
588.122743	0.000000	2-back	4544.567304	Steps:2 KeyPress:False Matched:False	1	2	false	false	Correct	false	n/a	n-backMarkers
588.853875	0.012000	dropped_samples	4545.298436	Dropped 3 samples	n/a	n/a	n/a	n/a	n/a	n/a	3	UoHDataOffsetStream
589.823688	0.000000	2-back	4546.268249	Steps:2 KeyPress:False Matched:False	1	2	false	false	Correct	false	n/a	n-backMarkers
591.524848	0.000000	2-back	4547.969409	Steps:2 KeyPress:True Matched:False	0	2	true	false	Wrong	false	n/a	n-backMarkers
591.754247	0.012000	dropped_samples	4548.198808	Dropped 3 samples	n/a	n/a	n/a	n/a	n/a	n/a	3	UoHDataOffsetStream
594.229850	0.008000	dropped_samples	4550.674411	Dropped 2 samples	n/a	n/a	n/a	n/a	n/a	n/a	2	UoHDataOffsetStream
596.461444	0.004000	dropped_samples	4552.906005	Dropped 1 samples	n/a	n/a	n/a	n/a	n/a	n/a	1	UoHDataOffsetStream
598.307107	0.012000	dropped_samples	4554.751668	Dropped 3 samples	n/a	n/a	n/a	n/a	n/a	n/a	3	UoHDataOffsetStream
600.231655	0.000000	3-back	4556.676216	Steps:3 KeyPress:False Matched:False	1	3	false	false	Correct	false	n/a	n-backMarkers
601.932783	0.000000	3-back	4558.377344	Steps:3 KeyPress:False Matched:False	1	3	false	false	Correct	false	n/a	n-backMarkers
603.541373	0.008000	dropped_samples	4559.985934	Dropped 2 samples	n/a	n/a	n/a	n/a	n/a	n/a	2	UoHDataOffsetStream
603.634124	0.000000	3-back	4560.078685	Steps:3 KeyPress:False Matched:False	1	3	false	false	Correct	false	n/a	n-backMarkers
605.334442	0.000000	3-back	4561.779003	Steps:3 KeyPress:False Matched:False	1	3	false	false	Correct	false	n/a	n-backMarkers
607.034751	0.000000	3-back	4563.479312	Steps:3 KeyPress:False Matched:False	1	3	false	false	Correct	false	n/a	n-backMarkers
608.735832	0.000000	3-back	4565.180393	Steps:3 KeyPress:False Matched:False	1	3	false	false	Correct	false	n/a	n-backMarkers
609.083404	0.004000	dropped_samples	4565.527965	Dropped 1 samples	n/a	n/a	n/a	n/a	n/a	n/a	1	UoHDataOffsetStream
610.436730	0.000000	3-back	4566.881291	Steps:3 KeyPress:True Matched:False	0	3	true	false	Wrong	false	n/a	n-backMarkers
612.138235	0.000000	3-back	4568.582796	Steps:3 KeyPress:False Matched:False	1	3	false	false	Correct	false	n/a	n-backMarkers
613.838723	0.000000	3-back	4570.283283	Steps:3 KeyPress:False Matched:False	1	3	false	false	Correct	false	n/a	n-backMarkers
615.133266	0.004000	dropped_samples	4571.577827	Dropped 1 samples	n/a	n/a	n/a	n/a	n/a	n/a	1	UoHDataOffsetStream
615.540028	0.000000	3-back	4571.984589	Steps:3 KeyPress:False Matched:False	1	3	false	false	Correct	false	n/a	n-backMarkers
617.241610	0.000000	3-back	4573.686171	Steps:3 KeyPress:True Matched:False	0	3	true	false	Wrong	false	n/a	n-backMarkers
618.941845	0.000000	3-back	4575.386406	Steps:3 KeyPress:False Matched:True	0	3	false	true	Wrong	false	n/a	n-backMarkers
620.642762	0.000000	3-back	4577.087323	Steps:3 KeyPress:True Matched:False	0	3	true	false	Wrong	false	n/a	n-backMarkers
621.661579	0.004000	dropped_samples	4578.106139	Dropped 1 samples	n/a	n/a	n/a	n/a	n/a	n/a	1	UoHDataOffsetStream
622.343172	0.000000	3-back	4578.787733	Steps:3 KeyPress:False Matched:False	1	3	false	false	Correct	false	n/a	n-backMarkers
622.838339	0.004000	dropped_samples	4579.282900	Dropped 1 samples	n/a	n/a	n/a	n/a	n/a	n/a	1	UoHDataOffsetStream
624.044707	0.000000	3-back	4580.489268	Steps:3 KeyPress:False Matched:False	1	3	false	false	Correct	false	n/a	n-backMarkers
624.059095	0.004000	dropped_samples	4580.503655	Dropped 1 samples	n/a	n/a	n/a	n/a	n/a	n/a	1	UoHDataOffsetStream
625.745039	0.000000	3-back	4582.189600	Steps:3 KeyPress:False Matched:False	1	3	false	false	Correct	false	n/a	n-backMarkers
626.627395	0.004000	dropped_samples	4583.071956	Dropped 1 samples	n/a	n/a	n/a	n/a	n/a	n/a	1	UoHDataOffsetStream
627.446708	0.000000	3-back	4583.891269	Steps:3 KeyPress:False Matched:False	1	3	false	false	Correct	false	n/a	n-backMarkers
627.467255	0.004000	dropped_samples	4583.911816	Dropped 1 samples	n/a	n/a	n/a	n/a	n/a	n/a	1	UoHDataOffsetStream
629.146751	0.000000	3-back	4585.591311	Steps:3 KeyPress:False Matched:True	0	3	false	true	Wrong	false	n/a	n-backMarkers
630.847075	0.000000	3-back	4587.291636	Steps:3 KeyPress:False Matched:False	1	3	false	false	Correct	false	n/a	n-backMarkers
631.598126	0.004000	dropped_samples	4588.042686	Dropped 1 samples	n/a	n/a	n/a	n/a	n/a	n/a	1	UoHDataOffsetStream
632.547687	0.000000	3-back	4588.992247	Steps:3 KeyPress:True Matched:False	0	3	true	false	Wrong	false	n/a	n-backMarkers
633.492805	0.012000	dropped_samples	4589.937366	Dropped 3 samples	n/a	n/a	n/a	n/a	n/a	n/a	3	UoHDataOffsetStream
634.248838	0.000000	3-back	4590.693398	Steps:3 KeyPress:False Matched:False	1	3	false	false	Correct	false	n/a	n-backMarkers
635.949831	0.000000	3-back	4592.394392	Steps:3 KeyPress:False Matched:False	1	3	false	false	Correct	false	n/a	n-backMarkers
637.650692	0.000000	3-back	4594.095252	Steps:3 KeyPress:False Matched:False	1	3	false	false	Correct	false	n/a	n-backMarkers
638.507287	0.004000	dropped_samples	4594.951848	Dropped 1 samples	n/a	n/a	n/a	n/a	n/a	n/a	1	UoHDataOffsetStream
639.351593	0.000000	3-back	4595.796154	Steps:3 KeyPress:False Matched:False	1	3	false	false	Correct	false	n/a	n-backMarkers
641.051736	0.000000	3-back	4597.496297	Steps:3 KeyPress:False Matched:True	0	3	false	true	Wrong	false	n/a	n-backMarkers
641.339301	0.012000	dropped_samples	4597.783862	Dropped 3 samples	n/a	n/a	n/a	n/a	n/a	n/a	3	UoHDataOffsetStream
642.752360	0.000000	3-back	4599.196921	Steps:3 KeyPress:False Matched:False	1	3	false	false	Correct	false	n/a	n-backMarkers
644.453178	0.000000	3-back	4600.897739	Steps:3 KeyPress:False Matched:False	1	3	false	false	Correct	false	n/a	n-backMarkers
644.703599	0.004000	dropped_samples	4601.148160	Dropped 1 samples	n/a	n/a	n/a	n/a	n/a	n/a	1	UoHDataOffsetStream
646.154614	0.000000	3-back	4602.599175	Steps:3 KeyPress:False Matched:False	1	3	false	false	Correct	false	n/a	n-backMarkers
647.855643	0.000000	3-back	4604.300204	Steps:3 KeyPress:False Matched:False	1	3	false	false	Correct	false	n/a	n-backMarkers
649.556022	0.000000	3-back	4606.000583	Steps:3 KeyPress:False Matched:False	1	3	false	false	Correct	false	n/a	n-backMarkers
650.606978	0.004000	dropped_samples	4607.051539	Dropped 1 samples	n/a	n/a	n/a	n/a	n/a	n/a	1	UoHDataOffsetStream
651.256774	0.000000	3-back	4607.701335	Steps:3 KeyPress:True Matched:False	0	3	true	false	Wrong	false	n/a	n-backMarkers
651.373531	0.004000	dropped_samples	4607.818092	Dropped 1 samples	n/a	n/a	n/a	n/a	n/a	n/a	1	UoHDataOffsetStream
652.958034	0.000000	3-back	4609.402595	Steps:3 KeyPress:False Matched:True	0	3	false	true	Wrong	false	n/a	n-backMarkers
653.004422	0.004000	dropped_samples	4609.448983	Dropped 1 samples	n/a	n/a	n/a	n/a	n/a	n/a	1	UoHDataOffsetStream
654.658048	0.000000	3-back	4611.102609	Steps:3 KeyPress:False Matched:False	1	3	false	false	Correct	false	n/a	n-backMarkers
656.358724	0.000000	3-back	4612.803285	Steps:3 KeyPress:False Matched:False	1	3	false	false	Correct	false	n/a	n-backMarkers
658.059611	0.000000	3-back	4614.504172	Steps:3 KeyPress:True Matched:False	0	3	true	false	Wrong	false	n/a	n-backMarkers
659.760029	0.000000	3-back	4616.204589	Steps:3 KeyPress:True Matched:False	0	3	true	false	Wrong	false	n/a	n-backMarkers
661.460749	0.000000	3-back	4617.905309	Steps:3 KeyPress:False Matched:False	1	3	false	false	Correct	false	n/a	n-backMarkers
663.063059	0.004000	dropped_samples	4619.507620	Dropped 1 samples	n/a	n/a	n/a	n/a	n/a	n/a	1	UoHDataOffsetStream
663.161676	0.000000	3-back	4619.606237	Steps:3 KeyPress:False Matched:False	1	3	false	false	Correct	false	n/a	n-backMarkers
664.862660	0.000000	3-back	4621.307220	Steps:3 KeyPress:False Matched:False	1	3	false	false	Correct	false	n/a	n-backMarkers
666.563859	0.000000	3-back	4623.008420	Steps:3 KeyPress:True Matched:False	0	3	true	false	Wrong	false	n/a	n-backMarkers
668.264807	0.000000	3-back	4624.709368	Steps:3 KeyPress:False Matched:True	0	3	false	true	Wrong	false	n/a	n-backMarkers
669.965812	0.000000	3-back	4626.410372	Steps:3 KeyPress:False Matched:False	1	3	false	false	Correct	false	n/a	n-backMarkers
670.045489	0.012000	dropped_samples	4626.490050	Dropped 3 samples	n/a	n/a	n/a	n/a	n/a	n/a	3	UoHDataOffsetStream
670.260319	0.004000	dropped_samples	4626.704880	Dropped 1 samples	n/a	n/a	n/a	n/a	n/a	n/a	1	UoHDataOffsetStream
670.763237	0.004000	dropped_samples	4627.207797	Dropped 1 samples	n/a	n/a	n/a	n/a	n/a	n/a	1	UoHDataOffsetStream
671.666613	0.000000	3-back	4628.111174	Steps:3 KeyPress:False Matched:False	1	3	false	false	Correct	false	n/a	n-backMarkers
671.896036	0.012000	dropped_samples	4628.340597	Dropped 3 samples	n/a	n/a	n/a	n/a	n/a	n/a	3	UoHDataOffsetStream
672.467317	0.004000	dropped_samples	4628.911878	Dropped 1 samples	n/a	n/a	n/a	n/a	n/a	n/a	1	UoHDataOffsetStream
673.366832	0.000000	3-back	4629.811393	Steps:3 KeyPress:False Matched:False	1	3	false	false	Correct	false	n/a	n-backMarkers
675.067842	0.000000	3-back	4631.512403	Steps:3 KeyPress:False Matched:False	1	3	false	false	Correct	false	n/a	n-backMarkers
676.769853	0.000000	3-back	4633.214413	Steps:3 KeyPress:True Matched:False	0	3	true	false	Wrong	false	n/a	n-backMarkers
678.471598	0.000000	3-back	4634.916159	Steps:3 KeyPress:False Matched:True	0	3	false	true	Wrong	false	n/a	n-backMarkers
680.172889	0.000000	3-back	4636.617449	Steps:3 KeyPress:False Matched:False	1	3	false	false	Correct	false	n/a	n-backMarkers
681.873864	0.000000	3-back	4638.318425	Steps:3 KeyPress:False Matched:False	1	3	false	false	Correct	false	n/a	n-backMarkers
683.574761	0.000000	3-back	4640.019321	Steps:3 KeyPress:False Matched:False	1	3	false	false	Correct	false	n/a	n-backMarkers
684.855099	0.004000	dropped_samples	4641.299660	Dropped 1 samples	n/a	n/a	n/a	n/a	n/a	n/a	1	UoHDataOffsetStream
685.276135	0.000000	3-back	4641.720696	Steps:3 KeyPress:False Matched:False	1	3	false	false	Correct	false	n/a	n-backMarkers
686.676684	0.008000	dropped_samples	4643.121245	Dropped 2 samples	n/a	n/a	n/a	n/a	n/a	n/a	2	UoHDataOffsetStream
686.976823	0.000000	3-back	4643.421384	Steps:3 KeyPress:False Matched:False	1	3	false	false	Correct	false	n/a	n-backMarkers
688.677982	0.000000	3-back	4645.122543	Steps:3 KeyPress:True Matched:False	0	3	true	false	Wrong	false	n/a	n-backMarkers
690.378699	0.000000	3-back	4646.823259	Steps:3 KeyPress:False Matched:False	1	3	false	false	Correct	false	n/a	n-backMarkers
692.080540	0.000000	3-back	4648.525100	Steps:3 KeyPress:False Matched:False	1	3	false	false	Correct	false	n/a	n-backMarkers
692.823833	0.004000	dropped_samples	4649.268394	Dropped 1 samples	n/a	n/a	n/a	n/a	n/a	n/a	1	UoHDataOffsetStream
693.781713	0.000000	3-back	4650.226274	Steps:3 KeyPress:False Matched:False	1	3	false	false	Correct	false	n/a	n-backMarkers
695.482684	0.000000	3-back	4651.927245	Steps:3 KeyPress:False Matched:False	1	3	false	false	Correct	false	n/a	n-backMarkers
696.398039	0.004000	dropped_samples	4652.842600	Dropped 1 samples	n/a	n/a	n/a	n/a	n/a	n/a	1	UoHDataOffsetStream
696.495766	0.004000	dropped_samples	4652.940327	Dropped 1 samples	n/a	n/a	n/a	n/a	n/a	n/a	1	UoHDataOffsetStream
696.783892	0.012000	dropped_samples	4653.228452	Dropped 3 samples	n/a	n/a	n/a	n/a	n/a	n/a	3	UoHDataOffsetStream
697.183692	0.000000	3-back	4653.628253	Steps:3 KeyPress:True Matched:False	0	3	true	false	Wrong	false	n/a	n-backMarkers
698.885432	0.000000	3-back	4655.329993	Steps:3 KeyPress:False Matched:False	1	3	false	false	Correct	false	n/a	n-backMarkers
699.591528	0.008000	dropped_samples	4656.036089	Dropped 2 samples	n/a	n/a	n/a	n/a	n/a	n/a	2	UoHDataOffsetStream
699.947891	0.012000	dropped_samples	4656.392452	Dropped 3 samples	n/a	n/a	n/a	n/a	n/a	n/a	3	UoHDataOffsetStream
700.586473	0.000000	3-back	4657.031034	Steps:3 KeyPress:False Matched:False	1	3	false	false	Correct	false	n/a	n-backMarkers
702.287619	0.000000	3-back	4658.732180	Steps:3 KeyPress:True Matched:False	0	3	true	false	Wrong	false	n/a	n-backMarkers
702.325798	0.012000	dropped_samples	4658.770359	Dropped 3 samples	n/a	n/a	n/a	n/a	n/a	n/a	3	UoHDataOffsetStream
703.988674	0.000000	3-back	4660.433235	Steps:3 KeyPress:False Matched:False	1	3	false	false	Correct	false	n/a	n-backMarkers
705.689999	0.000000	3-back	4662.134560	Steps:3 KeyPress:False Matched:False	1	3	false	false	Correct	false	n/a	n-backMarkers
707.391047	0.000000	3-back	4663.835608	Steps:3 KeyPress:False Matched:False	1	3	false	false	Correct	false	n/a	n-backMarkers
709.091711	0.000000	3-back	4665.536272	Steps:3 KeyPress:True Matched:False	0	3	true	false	Wrong	false	n/a	n-backMarkers
710.079728	0.004000	dropped_samples	4666.524289	Dropped 1 samples	n/a	n/a	n/a	n/a	n/a	n/a	1	UoHDataOffsetStream
710.221329	0.004000	dropped_samples	4666.665890	Dropped 1 samples	n/a	n/a	n/a	n/a	n/a	n/a	1	UoHDataOffsetStream
710.792679	0.000000	3-back	4667.237240	Steps:3 KeyPress:False Matched:False	1	3	false	false	Correct	false	n/a	n-backMarkers
711.544632	0.004000	dropped_samples	4667.989193	Dropped 1 samples	n/a	n/a	n/a	n/a	n/a	n/a	1	UoHDataOffsetStream
711.876723	0.004000	dropped_samples	4668.321284	Dropped 1 samples	n/a	n/a	n/a	n/a	n/a	n/a	1	UoHDataOffsetStream
712.494675	0.000000	3-back	4668.939236	Steps:3 KeyPress:False Matched:False	1	3	false	false	Correct	false	n/a	n-backMarkers
714.195823	0.000000	3-back	4670.640383	Steps:3 KeyPress:False Matched:False	1	3	false	false	Correct	false	n/a	n-backMarkers
715.897586	0.000000	3-back	4672.342147	Steps:3 KeyPress:True Matched:False	0	3	true	false	Wrong	false	n/a	n-backMarkers
717.598956	0.000000	3-back	4674.043517	Steps:3 KeyPress:False Matched:False	1	3	false	false	Correct	false	n/a	n-backMarkers
717.736016	0.004000	dropped_samples	4674.180576	Dropped 1 samples	n/a	n/a	n/a	n/a	n/a	n/a	1	UoHDataOffsetStream
719.300605	0.000000	3-back	4675.745166	Steps:3 KeyPress:False Matched:False	1	3	false	false	Correct	false	n/a	n-backMarkers
721.002584	0.000000	3-back	4677.447145	Steps:3 KeyPress:False Matched:False	1	3	false	false	Correct	false	n/a	n-backMarkers
722.703509	0.000000	3-back	4679.148070	Steps:3 KeyPress:True Matched:False	0	3	true	false	Wrong	false	n/a	n-backMarkers
724.403777	0.000000	3-back	4680.848338	Steps:3 KeyPress:False Matched:False	1	3	false	false	Correct	false	n/a	n-backMarkers
726.104835	0.000000	3-back	4682.549396	Steps:3 KeyPress:False Matched:False	1	3	false	false	Correct	false	n/a	n-backMarkers
727.428416	0.004000	dropped_samples	4683.872976	Dropped 1 samples	n/a	n/a	n/a	n/a	n/a	n/a	1	UoHDataOffsetStream
727.805847	0.000000	3-back	4684.250408	Steps:3 KeyPress:False Matched:False	1	3	false	false	Correct	false	n/a	n-backMarkers
729.506697	0.000000	3-back	4685.951258	Steps:3 KeyPress:True Matched:False	0	3	true	false	Wrong	false	n/a	n-backMarkers
731.207524	0.000000	3-back	4687.652084	Steps:3 KeyPress:False Matched:True	0	3	false	true	Wrong	false	n/a	n-backMarkers
732.374751	0.004000	dropped_samples	4688.819312	Dropped 1 samples	n/a	n/a	n/a	n/a	n/a	n/a	1	UoHDataOffsetStream
732.711590	0.004000	dropped_samples	4689.156151	Dropped 1 samples	n/a	n/a	n/a	n/a	n/a	n/a	1	UoHDataOffsetStream
732.908643	0.000000	3-back	4689.353204	Steps:3 KeyPress:False Matched:False	1	3	false	false	Correct	false	n/a	n-backMarkers
734.609577	0.000000	3-back	4691.054137	Steps:3 KeyPress:False Matched:False	1	3	false	false	Correct	false	n/a	n-backMarkers
735.568073	0.004000	dropped_samples	4692.012634	Dropped 1 samples	n/a	n/a	n/a	n/a	n/a	n/a	1	UoHDataOffsetStream
736.310247	0.000000	3-back	4692.754808	Steps:3 KeyPress:False Matched:False	1	3	false	false	Correct	false	n/a	n-backMarkers
738.010448	0.000000	3-back	4694.455008	Steps:3 KeyPress:True Matched:False	0	3	true	false	Wrong	false	n/a	n-backMarkers
738.854232	0.012000	dropped_samples	4695.298793	Dropped 3 samples	n/a	n/a	n/a	n/a	n/a	n/a	3	UoHDataOffsetStream
738.951905	0.004000	dropped_samples	4695.396466	Dropped 1 samples	n/a	n/a	n/a	n/a	n/a	n/a	1	UoHDataOffsetStream
739.020255	0.004000	dropped_samples	4695.464816	Dropped 1 samples	n/a	n/a	n/a	n/a	n/a	n/a	1	UoHDataOffsetStream
739.711021	0.000000	3-back	4696.155582	Steps:3 KeyPress:False Matched:False	1	3	false	false	Correct	false	n/a	n-backMarkers
740.655998	0.012000	dropped_samples	4697.100559	Dropped 3 samples	n/a	n/a	n/a	n/a	n/a	n/a	3	UoHDataOffsetStream
741.412575	0.000000	3-back	4697.857136	Steps:3 KeyPress:False Matched:False	1	3	false	false	Correct	false	n/a	n-backMarkers
743.113550	0.000000	3-back	4699.558111	Steps:3 KeyPress:False Matched:False	1	3	false	false	Correct	false	n/a	n-backMarkers
744.814602	0.000000	3-back	4701.259162	Steps:3 KeyPress:True Matched:False	0	3	true	false	Wrong	false	n/a	n-backMarkers
746.515695	0.000000	3-back	4702.960256	Steps:3 KeyPress:False Matched:True	0	3	false	true	Wrong	false	n/a	n-backMarkers
746.823020	0.004000	dropped_samples	4703.267581	Dropped 1 samples	n/a	n/a	n/a	n/a	n/a	n/a	1	UoHDataOffsetStream
748.216842	0.000000	3-back	4704.661403	Steps:3 KeyPress:False Matched:False	1	3	false	false	Correct	false	n/a	n-backMarkers
749.917663	0.000000	3-back	4706.362224	Steps:3 KeyPress:False Matched:False	1	3	false	false	Correct	false	n/a	n-backMarkers
750.397227	0.004000	dropped_samples	4706.841788	Dropped 1 samples	n/a	n/a	n/a	n/a	n/a	n/a	1	UoHDataOffsetStream
751.618539	0.000000	3-back	4708.063100	Steps:3 KeyPress:False Matched:True	0	3	false	true	Wrong	false	n/a	n-backMarkers
753.320555	0.000000	3-back	4709.765116	Steps:3 KeyPress:False Matched:False	1	3	false	false	Correct	false	n/a	n-backMarkers
755.021365	0.000000	3-back	4711.465925	Steps:3 KeyPress:False Matched:False	1	3	false	false	Correct	false	n/a	n-backMarkers
755.460693	0.012000	dropped_samples	4711.905254	Dropped 3 samples	n/a	n/a	n/a	n/a	n/a	n/a	3	UoHDataOffsetStream
756.520266	0.012000	dropped_samples	4712.964827	Dropped 3 samples	n/a	n/a	n/a	n/a	n/a	n/a	3	UoHDataOffsetStream
756.722511	0.000000	3-back	4713.167072	Steps:3 KeyPress:False Matched:False	1	3	false	false	Correct	false	n/a	n-backMarkers
758.423785	0.000000	3-back	4714.868346	Steps:3 KeyPress:True Matched:False	0	3	true	false	Wrong	false	n/a	n-backMarkers
760.125035	0.000000	3-back	4716.569596	Steps:3 KeyPress:False Matched:False	1	3	false	false	Correct	false	n/a	n-backMarkers
760.167743	0.004000	dropped_samples	4716.612304	Dropped 1 samples	n/a	n/a	n/a	n/a	n/a	n/a	1	UoHDataOffsetStream
760.333724	0.004000	dropped_samples	4716.778285	Dropped 1 samples	n/a	n/a	n/a	n/a	n/a	n/a	1	UoHDataOffsetStream
761.344493	0.012000	dropped_samples	4717.789054	Dropped 3 samples	n/a	n/a	n/a	n/a	n/a	n/a	3	UoHDataOffsetStream
761.825888	0.000000	3-back	4718.270449	Steps:3 KeyPress:False Matched:False	1	3	false	false	Correct	false	n/a	n-backMarkers
761.989063	0.012000	dropped_samples	4718.433623	Dropped 3 samples	n/a	n/a	n/a	n/a	n/a	n/a	3	UoHDataOffsetStream
763.526869	0.000000	3-back	4719.971430	Steps:3 KeyPress:False Matched:False	1	3	false	false	Correct	false	n/a	n-backMarkers
763.649178	0.008000	dropped_samples	4720.093739	Dropped 2 samples	n/a	n/a	n/a	n/a	n/a	n/a	2	UoHDataOffsetStream
765.084843	0.004000	dropped_samples	4721.529404	Dropped 1 samples	n/a	n/a	n/a	n/a	n/a	n/a	1	UoHDataOffsetStream
765.228595	0.000000	3-back	4721.673155	Steps:3 KeyPress:True Matched:False	0	3	true	false	Wrong	false	n/a	n-backMarkers
765.905091	0.012000	dropped_samples	4722.349652	Dropped 3 samples	n/a	n/a	n/a	n/a	n/a	n/a	3	UoHDataOffsetStream
766.929847	0.000000	3-back	4723.374407	Steps:3 KeyPress:False Matched:False	1	3	false	false	Correct	false	n/a	n-backMarkers
768.630568	0.000000	3-back	4725.075129	Steps:3 KeyPress:False Matched:False	1	3	false	false	Correct	false	n/a	n-backMarkers
769.933415	0.008000	dropped_samples	4726.377976	Dropped 2 samples	n/a	n/a	n/a	n/a	n/a	n/a	2	UoHDataOffsetStream
770.197055	0.004000	dropped_samples	4726.641615	Dropped 1 samples	n/a	n/a	n/a	n/a	n/a	n/a	1	UoHDataOffsetStream
771.373843	0.004000	dropped_samples	4727.818404	Dropped 1 samples	n/a	n/a	n/a	n/a	n/a	n/a	1	UoHDataOffsetStream
771.808610	0.008000	dropped_samples	4728.253171	Dropped 2 samples	n/a	n/a	n/a	n/a	n/a	n/a	2	UoHDataOffsetStream
777.330871	0.000000	4-back	4733.775432	Steps:4 KeyPress:False Matched:False	1	4	false	false	Correct	false	n/a	n-backMarkers
779.032203	0.000000	4-back	4735.476764	Steps:4 KeyPress:False Matched:True	0	4	false	true	Wrong	false	n/a	n-backMarkers
779.951834	0.004000	dropped_samples	4736.396395	Dropped 1 samples	n/a	n/a	n/a	n/a	n/a	n/a	1	UoHDataOffsetStream
780.040831	0.004000	dropped_samples	4736.485392	Dropped 1 samples	n/a	n/a	n/a	n/a	n/a	n/a	1	UoHDataOffsetStream
780.733796	0.000000	4-back	4737.178357	Steps:4 KeyPress:False Matched:True	0	4	false	true	Wrong	false	n/a	n-backMarkers
781.886529	0.004000	dropped_samples	4738.331089	Dropped 1 samples	n/a	n/a	n/a	n/a	n/a	n/a	1	UoHDataOffsetStream
782.435489	0.000000	4-back	4738.880050	Steps:4 KeyPress:False Matched:False	1	4	false	false	Correct	false	n/a	n-backMarkers
783.014463	0.012000	dropped_samples	4739.459024	Dropped 3 samples	n/a	n/a	n/a	n/a	n/a	n/a	3	UoHDataOffsetStream
784.136618	0.000000	4-back	4740.581179	Steps:4 KeyPress:False Matched:False	1	4	false	false	Correct	false	n/a	n-backMarkers
784.406064	0.004000	dropped_samples	4740.850624	Dropped 1 samples	n/a	n/a	n/a	n/a	n/a	n/a	1	UoHDataOffsetStream
785.837595	0.000000	4-back	4742.282156	Steps:4 KeyPress:False Matched:False	1	4	false	false	Correct	false	n/a	n-backMarkers
787.145392	0.004000	dropped_samples	4743.589953	Dropped 1 samples	n/a	n/a	n/a	n/a	n/a	n/a	1	UoHDataOffsetStream
787.538161	0.000000	4-back	4743.982722	Steps:4 KeyPress:False Matched:True	0	4	false	true	Wrong	false	n/a	n-backMarkers
789.238300	0.000000	4-back	4745.682861	Steps:4 KeyPress:False Matched:True	0	4	false	true	Wrong	false	n/a	n-backMarkers
790.939552	0.000000	4-back	4747.384112	Steps:4 KeyPress:False Matched:False	1	4	false	false	Correct	false	n/a	n-backMarkers
791.056525	0.004000	dropped_samples	4747.501086	Dropped 1 samples	n/a	n/a	n/a	n/a	n/a	n/a	1	UoHDataOffsetStream
792.640554	0.000000	4-back	4749.085115	Steps:4 KeyPress:False Matched:False	1	4	false	false	Correct	false	n/a	n-backMarkers
794.341635	0.000000	4-back	4750.786196	Steps:4 KeyPress:False Matched:False	1	4	false	false	Correct	false	n/a	n-backMarkers
796.042576	0.000000	4-back	4752.487137	Steps:4 KeyPress:True Matched:True	1	4	true	true	Correct	false	n/a	n-backMarkers
797.743800	0.000000	4-back	4754.188361	Steps:4 KeyPress:False Matched:False	1	4	false	false	Correct	false	n/a	n-backMarkers
799.444594	0.000000	4-back	4755.889155	Steps:4 KeyPress:False Matched:True	0	4	false	true	Wrong	false	n/a	n-backMarkers
799.933569	0.004000	dropped_samples	4756.378130	Dropped 1 samples	n/a	n/a	n/a	n/a	n/a	n/a	1	UoHDataOffsetStream
800.221564	0.012000	dropped_samples	4756.666125	Dropped 3 samples	n/a	n/a	n/a	n/a	n/a	n/a	3	UoHDataOffsetStream
801.146503	0.000000	4-back	4757.591064	Steps:4 KeyPress:False Matched:False	1	4	false	false	Correct	false	n/a	n-backMarkers
801.305671	0.004000	dropped_samples	4757.750232	Dropped 1 samples	n/a	n/a	n/a	n/a	n/a	n/a	1	UoHDataOffsetStream
802.846636	0.000000	4-back	4759.291197	Steps:4 KeyPress:False Matched:False	1	4	false	false	Correct	false	n/a	n-backMarkers
804.113181	0.008000	dropped_samples	4760.557742	Dropped 2 samples	n/a	n/a	n/a	n/a	n/a	n/a	2	UoHDataOffsetStream
804.547730	0.000000	4-back	4760.992291	Steps:4 KeyPress:False Matched:False	1	4	false	false	Correct	false	n/a	n-backMarkers
806.248461	0.000000	4-back	4762.693022	Steps:4 KeyPress:True Matched:True	1	4	true	true	Correct	false	n/a	n-backMarkers
807.614121	0.004000	dropped_samples	4764.058682	Dropped 1 samples	n/a	n/a	n/a	n/a	n/a	n/a	1	UoHDataOffsetStream
807.949887	0.000000	4-back	4764.394448	Steps:4 KeyPress:False Matched:True	0	4	false	true	Wrong	false	n/a	n-backMarkers
808.429605	0.004000	dropped_samples	4764.874166	Dropped 1 samples	n/a	n/a	n/a	n/a	n/a	n/a	1	UoHDataOffsetStream
809.005767	0.004000	dropped_samples	4765.450328	Dropped 1 samples	n/a	n/a	n/a	n/a	n/a	n/a	1	UoHDataOffsetStream
809.581919	0.004000	dropped_samples	4766.026480	Dropped 1 samples	n/a	n/a	n/a	n/a	n/a	n/a	1	UoHDataOffsetStream
809.651265	0.000000	4-back	4766.095825	Steps:4 KeyPress:False Matched:False	1	4	false	false	Correct	false	n/a	n-backMarkers
810.709844	0.012000	dropped_samples	4767.154405	Dropped 3 samples	n/a	n/a	n/a	n/a	n/a	n/a	3	UoHDataOffsetStream
811.351668	0.000000	4-back	4767.796229	Steps:4 KeyPress:False Matched:False	1	4	false	false	Correct	false	n/a	n-backMarkers
811.911043	0.008000	dropped_samples	4768.355603	Dropped 2 samples	n/a	n/a	n/a	n/a	n/a	n/a	2	UoHDataOffsetStream
813.052623	0.000000	4-back	4769.497184	Steps:4 KeyPress:False Matched:False	1	4	false	false	Correct	false	n/a	n-backMarkers
814.215761	0.004000	dropped_samples	4770.660322	Dropped 1 samples	n/a	n/a	n/a	n/a	n/a	n/a	1	UoHDataOffsetStream
814.753741	0.000000	4-back	4771.198302	Steps:4 KeyPress:True Matched:True	1	4	true	true	Correct	false	n/a	n-backMarkers
815.582937	0.004000	dropped_samples	4772.027497	Dropped 1 samples	n/a	n/a	n/a	n/a	n/a	n/a	1	UoHDataOffsetStream
816.455512	0.000000	4-back	4772.900073	Steps:4 KeyPress:False Matched:False	1	4	false	false	Correct	false	n/a	n-backMarkers
818.156536	0.000000	4-back	4774.601096	Steps:4 KeyPress:False Matched:True	0	4	false	true	Wrong	false	n/a	n-backMarkers
819.689395	0.012000	dropped_samples	4776.133956	Dropped 3 samples	n/a	n/a	n/a	n/a	n/a	n/a	3	UoHDataOffsetStream
819.857836	0.000000	4-back	4776.302397	Steps:4 KeyPress:True Matched:False	0	4	true	false	Wrong	false	n/a	n-backMarkers
820.001875	0.004000	dropped_samples	4776.446436	Dropped 1 samples	n/a	n/a	n/a	n/a	n/a	n/a	1	UoHDataOffsetStream
821.486270	0.004000	dropped_samples	4777.930831	Dropped 1 samples	n/a	n/a	n/a	n/a	n/a	n/a	1	UoHDataOffsetStream
821.559359	0.000000	4-back	4778.003920	Steps:4 KeyPress:False Matched:False	1	4	false	false	Correct	false	n/a	n-backMarkers
822.326090	0.004000	dropped_samples	4778.770651	Dropped 1 samples	n/a	n/a	n/a	n/a	n/a	n/a	1	UoHDataOffsetStream
823.260421	0.000000	4-back	4779.704982	Steps:4 KeyPress:True Matched:False	0	4	true	false	Wrong	false	n/a	n-backMarkers
824.960602	0.000000	4-back	4781.405163	Steps:4 KeyPress:False Matched:True	0	4	false	true	Wrong	false	n/a	n-backMarkers
826.662438	0.000000	4-back	4783.106999	Steps:4 KeyPress:True Matched:True	1	4	true	true	Correct	false	n/a	n-backMarkers
828.362528	0.000000	4-back	4784.807089	Steps:4 KeyPress:False Matched:False	1	4	false	false	Correct	false	n/a	n-backMarkers
830.063497	0.000000	4-back	4786.508058	Steps:4 KeyPress:False Matched:False	1	4	false	false	Correct	false	n/a	n-backMarkers
831.618112	0.024000	dropped_samples	4788.062672	Dropped 6 samples	n/a	n/a	n/a	n/a	n/a	n/a	6	UoHDataOffsetStream
831.764601	0.000000	4-back	4788.209162	Steps:4 KeyPress:False Matched:False	1	4	false	false	Correct	false	n/a	n-backMarkers
832.477701	0.012000	dropped_samples	4788.922262	Dropped 3 samples	n/a	n/a	n/a	n/a	n/a	n/a	3	UoHDataOffsetStream
833.464559	0.000000	4-back	4789.909120	Steps:4 KeyPress:False Matched:True	0	4	false	true	Wrong	false	n/a	n-backMarkers
834.425783	0.004000	dropped_samples	4790.870344	Dropped 1 samples	n/a	n/a	n/a	n/a	n/a	n/a	1	UoHDataOffsetStream
835.164946	0.000000	4-back	4791.609507	Steps:4 KeyPress:False Matched:False	1	4	false	false	Correct	false	n/a	n-backMarkers
835.646447	0.004000	dropped_samples	4792.091008	Dropped 1 samples	n/a	n/a	n/a	n/a	n/a	n/a	1	UoHDataOffsetStream
836.865773	0.000000	4-back	4793.310334	Steps:4 KeyPress:True Matched:True	1	4	true	true	Correct	false	n/a	n-backMarkers
838.566922	0.000000	4-back	4795.011483	Steps:4 KeyPress:False Matched:False	1	4	false	false	Correct	false	n/a	n-backMarkers
840.268075	0.000000	4-back	4796.712636	Steps:4 KeyPress:True Matched:False	0	4	true	false	Wrong	false	n/a	n-backMarkers
841.968412	0.000000	4-back	4798.412973	Steps:4 KeyPress:False Matched:False	1	4	false	false	Correct	false	n/a	n-backMarkers
843.669687	0.000000	4-back	4800.114248	Steps:4 KeyPress:True Matched:True	1	4	true	true	Correct	false	n/a	n-backMarkers
845.370392	0.000000	4-back	4801.814953	Steps:4 KeyPress:False Matched:True	0	4	false	true	Wrong	false	n/a	n-backMarkers
847.071436	0.000000	4-back	4803.515997	Steps:4 KeyPress:True Matched:False	0	4	true	false	Wrong	false	n/a	n-backMarkers
847.311540	0.004000	dropped_samples	4803.756100	Dropped 1 samples	n/a	n/a	n/a	n/a	n/a	n/a	1	UoHDataOffsetStream
848.585938	0.004000	dropped_samples	4805.030499	Dropped 1 samples	n/a	n/a	n/a	n/a	n/a	n/a	1	UoHDataOffsetStream
848.772989	0.000000	4-back	4805.217549	Steps:4 KeyPress:False Matched:False	1	4	false	false	Correct	false	n/a	n-backMarkers
850.474676	0.000000	4-back	4806.919237	Steps:4 KeyPress:False Matched:False	1	4	false	false	Correct	false	n/a	n-backMarkers
852.175690	0.000000	4-back	4808.620250	Steps:4 KeyPress:False Matched:True	0	4	false	true	Wrong	false	n/a	n-backMarkers
853.141595	0.004000	dropped_samples	4809.586156	Dropped 1 samples	n/a	n/a	n/a	n/a	n/a	n/a	1	UoHDataOffsetStream
853.742170	0.004000	dropped_samples	4810.186731	Dropped 1 samples	n/a	n/a	n/a	n/a	n/a	n/a	1	UoHDataOffsetStream
853.877407	0.000000	4-back	4810.321967	Steps:4 KeyPress:False Matched:False	1	4	false	false	Correct	false	n/a	n-backMarkers
855.402311	0.004000	dropped_samples	4811.846872	Dropped 1 samples	n/a	n/a	n/a	n/a	n/a	n/a	1	UoHDataOffsetStream
855.578315	0.000000	4-back	4812.022876	Steps:4 KeyPress:False Matched:False	1	4	false	false	Correct	false	n/a	n-backMarkers
856.193476	0.004000	dropped_samples	4812.638036	Dropped 1 samples	n/a	n/a	n/a	n/a	n/a	n/a	1	UoHDataOffsetStream
857.150399	0.004000	dropped_samples	4813.594960	Dropped 1 samples	n/a	n/a	n/a	n/a	n/a	n/a	1	UoHDataOffsetStream
857.278418	0.000000	4-back	4813.722979	Steps:4 KeyPress:False Matched:True	0	4	false	true	Wrong	false	n/a	n-backMarkers
857.848686	0.004000	dropped_samples	4814.293247	Dropped 1 samples	n/a	n/a	n/a	n/a	n/a	n/a	1	UoHDataOffsetStream
858.145753	0.012000	dropped_samples	4814.590313	Dropped 3 samples	n/a	n/a	n/a	n/a	n/a	n/a	3	UoHDataOffsetStream
858.185567	0.004000	dropped_samples	4814.630128	Dropped 1 samples	n/a	n/a	n/a	n/a	n/a	n/a	1	UoHDataOffsetStream
858.979456	0.000000	4-back	4815.424017	Steps:4 KeyPress:False Matched:False	1	4	false	false	Correct	false	n/a	n-backMarkers
860.680480	0.000000	4-back	4817.125041	Steps:4 KeyPress:False Matched:False	1	4	false	false	Correct	false	n/a	n-backMarkers
862.381303	0.000000	4-back	4818.825864	Steps:4 KeyPress:False Matched:False	1	4	false	false	Correct	false	n/a	n-backMarkers
864.040064	0.004000	dropped_samples	4820.484624	Dropped 1 samples	n/a	n/a	n/a	n/a	n/a	n/a	1	UoHDataOffsetStream
864.081489	0.000000	4-back	4820.526050	Steps:4 KeyPress:True Matched:True	1	4	true	true	Correct	false	n/a	n-backMarkers
865.045917	0.004000	dropped_samples	4821.490477	Dropped 1 samples	n/a	n/a	n/a	n/a	n/a	n/a	1	UoHDataOffsetStream
865.782490	0.000000	4-back	4822.227051	Steps:4 KeyPress:False Matched:True	0	4	false	true	Wrong	false	n/a	n-backMarkers
865.983427	0.008000	dropped_samples	4822.427988	Dropped 2 samples	n/a	n/a	n/a	n/a	n/a	n/a	2	UoHDataOffsetStream
866.681727	0.004000	dropped_samples	4823.126288	Dropped 1 samples	n/a	n/a	n/a	n/a	n/a	n/a	1	UoHDataOffsetStream
867.482907	0.000000	4-back	4823.927468	Steps:4 KeyPress:False Matched:False	1	4	false	false	Correct	false	n/a	n-backMarkers
868.961965	0.004000	dropped_samples	4825.406525	Dropped 1 samples	n/a	n/a	n/a	n/a	n/a	n/a	1	UoHDataOffsetStream
869.183620	0.000000	4-back	4825.628181	Steps:4 KeyPress:False Matched:False	1	4	false	false	Correct	false	n/a	n-backMarkers
869.777396	0.004000	dropped_samples	4826.221957	Dropped 1 samples	n/a	n/a	n/a	n/a	n/a	n/a	1	UoHDataOffsetStream
870.114294	0.012000	dropped_samples	4826.558855	Dropped 3 samples	n/a	n/a	n/a	n/a	n/a	n/a	3	UoHDataOffsetStream
870.884673	0.000000	4-back	4827.329234	Steps:4 KeyPress:True Matched:False	0	4	true	false	Wrong	false	n/a	n-backMarkers
872.585429	0.000000	4-back	4829.029990	Steps:4 KeyPress:True Matched:True	1	4	true	true	Correct	false	n/a	n-backMarkers
873.400450	0.012000	dropped_samples	4829.845010	Dropped 3 samples	n/a	n/a	n/a	n/a	n/a	n/a	3	UoHDataOffsetStream
874.287382	0.000000	4-back	4830.731943	Steps:4 KeyPress:False Matched:False	1	4	false	false	Correct	false	n/a	n-backMarkers
875.988415	0.000000	4-back	4832.432976	Steps:4 KeyPress:False Matched:False	1	4	false	false	Correct	false	n/a	n-backMarkers
877.690364	0.000000	4-back	4834.134925	Steps:4 KeyPress:False Matched:False	1	4	false	false	Correct	false	n/a	n-backMarkers
879.391011	0.000000	4-back	4835.835572	Steps:4 KeyPress:False Matched:True	0	4	false	true	Wrong	false	n/a	n-backMarkers
880.719893	0.004000	dropped_samples	4837.164453	Dropped 1 samples	n/a	n/a	n/a	n/a	n/a	n/a	1	UoHDataOffsetStream
881.091495	0.000000	4-back	4837.536056	Steps:4 KeyPress:False Matched:False	1	4	false	false	Correct	false	n/a	n-backMarkers
882.793302	0.000000	4-back	4839.237862	Steps:4 KeyPress:False Matched:False	1	4	false	false	Correct	false	n/a	n-backMarkers
882.838261	0.008000	dropped_samples	4839.282822	Dropped 2 samples	n/a	n/a	n/a	n/a	n/a	n/a	2	UoHDataOffsetStream
882.877985	0.012000	dropped_samples	4839.322546	Dropped 3 samples	n/a	n/a	n/a	n/a	n/a	n/a	3	UoHDataOffsetStream
884.103621	0.008000	dropped_samples	4840.548182	Dropped 2 samples	n/a	n/a	n/a	n/a	n/a	n/a	2	UoHDataOffsetStream
884.494127	0.000000	4-back	4840.938688	Steps:4 KeyPress:False Matched:False	1	4	false	false	Correct	false	n/a	n-backMarkers
886.195382	0.000000	4-back	4842.639943	Steps:4 KeyPress:True Matched:True	1	4	true	true	Correct	false	n/a	n-backMarkers
887.609501	0.004000	dropped_samples	4844.054062	Dropped 1 samples	n/a	n/a	n/a	n/a	n/a	n/a	1	UoHDataOffsetStream
887.896508	0.000000	4-back	4844.341069	Steps:4 KeyPress:False Matched:False	1	4	false	false	Correct	false	n/a	n-backMarkers
888.522570	0.012000	dropped_samples	4844.967131	Dropped 3 samples	n/a	n/a	n/a	n/a	n/a	n/a	3	UoHDataOffsetStream
889.597345	0.000000	4-back	4846.041906	Steps:4 KeyPress:False Matched:False	1	4	false	false	Correct	false	n/a	n-backMarkers
890.294981	0.004000	dropped_samples	4846.739542	Dropped 1 samples	n/a	n/a	n/a	n/a	n/a	n/a	1	UoHDataOffsetStream
891.298467	0.000000	4-back	4847.743028	Steps:4 KeyPress:False Matched:False	1	4	false	false	Correct	false	n/a	n-backMarkers
892.482512	0.004000	dropped_samples	4848.927073	Dropped 1 samples	n/a	n/a	n/a	n/a	n/a	n/a	1	UoHDataOffsetStream
892.999371	0.000000	4-back	4849.443932	Steps:4 KeyPress:False Matched:True	0	4	false	true	Wrong	false	n/a	n-backMarkers
893.273550	0.012000	dropped_samples	4849.718111	Dropped 3 samples	n/a	n/a	n/a	n/a	n/a	n/a	3	UoHDataOffsetStream
894.494248	0.004000	dropped_samples	4850.938809	Dropped 1 samples	n/a	n/a	n/a	n/a	n/a	n/a	1	UoHDataOffsetStream
894.700770	0.000000	4-back	4851.145331	Steps:4 KeyPress:True Matched:False	0	4	true	false	Wrong	false	n/a	n-backMarkers
896.402331	0.000000	4-back	4852.846892	Steps:4 KeyPress:False Matched:False	1	4	false	false	Correct	false	n/a	n-backMarkers
897.306763	0.012000	dropped_samples	4853.751323	Dropped 3 samples	n/a	n/a	n/a	n/a	n/a	n/a	3	UoHDataOffsetStream
898.102450	0.000000	4-back	4854.547011	Steps:4 KeyPress:False Matched:False	1	4	false	false	Correct	false	n/a	n-backMarkers
899.803391	0.000000	4-back	4856.247951	Steps:4 KeyPress:False Matched:True	0	4	false	true	Wrong	false	n/a	n-backMarkers
900.065598	0.004000	dropped_samples	4856.510158	Dropped 1 samples	n/a	n/a	n/a	n/a	n/a	n/a	1	UoHDataOffsetStream
901.504360	0.000000	4-back	4857.948921	Steps:4 KeyPress:False Matched:True	0	4	false	true	Wrong	false	n/a	n-backMarkers
901.862407	0.004000	dropped_samples	4858.306968	Dropped 1 samples	n/a	n/a	n/a	n/a	n/a	n/a	1	UoHDataOffsetStream
903.205207	0.000000	4-back	4859.649768	Steps:4 KeyPress:True Matched:False	0	4	true	false	Wrong	false	n/a	n-backMarkers
903.473762	0.004000	dropped_samples	4859.918322	Dropped 1 samples	n/a	n/a	n/a	n/a	n/a	n/a	1	UoHDataOffsetStream
904.694445	0.012000	dropped_samples	4861.139006	Dropped 3 samples	n/a	n/a	n/a	n/a	n/a	n/a	3	UoHDataOffsetStream
904.906266	0.000000	4-back	4861.350826	Steps:4 KeyPress:False Matched:False	1	4	false	false	Correct	false	n/a	n-backMarkers
906.496215	0.012000	dropped_samples	4862.940776	Dropped 3 samples	n/a	n/a	n/a	n/a	n/a	n/a	3	UoHDataOffsetStream
906.607426	0.000000	4-back	4863.051987	Steps:4 KeyPress:False Matched:False	1	4	false	false	Correct	false	n/a	n-backMarkers
906.906377	0.012000	dropped_samples	4863.350938	Dropped 3 samples	n/a	n/a	n/a	n/a	n/a	n/a	3	UoHDataOffsetStream
907.002846	0.004000	dropped_samples	4863.447407	Dropped 1 samples	n/a	n/a	n/a	n/a	n/a	n/a	1	UoHDataOffsetStream
908.308930	0.000000	4-back	4864.753491	Steps:4 KeyPress:False Matched:True	0	4	false	true	Wrong	false	n/a	n-backMarkers
910.009469	0.000000	4-back	4866.454030	Steps:4 KeyPress:False Matched:True	0	4	false	true	Wrong	false	n/a	n-backMarkers
911.710371	0.000000	4-back	4868.154932	Steps:4 KeyPress:False Matched:False	1	4	false	false	Correct	false	n/a	n-backMarkers
913.411346	0.000000	4-back	4869.855906	Steps:4 KeyPress:False Matched:False	1	4	false	false	Correct	false	n/a	n-backMarkers
915.112394	0.000000	4-back	4871.556955	Steps:4 KeyPress:False Matched:False	1	4	false	false	Correct	false	n/a	n-backMarkers
916.813436	0.000000	4-back	4873.257997	Steps:4 KeyPress:False Matched:True	0	4	false	true	Wrong	false	n/a	n-backMarkers
917.751108	0.004000	dropped_samples	4874.195669	Dropped 1 samples	n/a	n/a	n/a	n/a	n/a	n/a	1	UoHDataOffsetStream
917.946496	0.004000	dropped_samples	4874.391057	Dropped 1 samples	n/a	n/a	n/a	n/a	n/a	n/a	1	UoHDataOffsetStream
918.514243	0.000000	4-back	4874.958804	Steps:4 KeyPress:False Matched:True	0	4	false	true	Wrong	false	n/a	n-backMarkers
920.214333	0.000000	4-back	4876.658894	Steps:4 KeyPress:False Matched:False	1	4	false	false	Correct	false	n/a	n-backMarkers
921.915485	0.000000	4-back	4878.360046	Steps:4 KeyPress:False Matched:False	1	4	false	false	Correct	false	n/a	n-backMarkers
922.262867	0.004000	dropped_samples	4878.707427	Dropped 1 samples	n/a	n/a	n/a	n/a	n/a	n/a	1	UoHDataOffsetStream
923.616389	0.000000	4-back	4880.060949	Steps:4 KeyPress:False Matched:False	1	4	false	false	Correct	false	n/a	n-backMarkers
925.318128	0.000000	4-back	4881.762689	Steps:4 KeyPress:False Matched:True	0	4	false	true	Wrong	false	n/a	n-backMarkers
927.019539	0.000000	4-back	4883.464100	Steps:4 KeyPress:False Matched:True	0	4	false	true	Wrong	false	n/a	n-backMarkers
928.721314	0.000000	4-back	4885.165875	Steps:4 KeyPress:False Matched:False	1	4	false	false	Correct	false	n/a	n-backMarkers
930.422329	0.000000	4-back	4886.866890	Steps:4 KeyPress:False Matched:False	1	4	false	false	Correct	false	n/a	n-backMarkers
932.123394	0.000000	4-back	4888.567955	Steps:4 KeyPress:False Matched:False	1	4	false	false	Correct	false	n/a	n-backMarkers
933.810766	0.024000	dropped_samples	4890.255327	Dropped 6 samples	n/a	n/a	n/a	n/a	n/a	n/a	6	UoHDataOffsetStream
933.824363	0.000000	4-back	4890.268923	Steps:4 KeyPress:True Matched:True	1	4	true	true	Correct	false	n/a	n-backMarkers
935.525679	0.000000	4-back	4891.970240	Steps:4 KeyPress:False Matched:True	0	4	false	true	Wrong	false	n/a	n-backMarkers
936.330564	0.004000	dropped_samples	4892.775125	Dropped 1 samples	n/a	n/a	n/a	n/a	n/a	n/a	1	UoHDataOffsetStream
937.226274	0.000000	4-back	4893.670835	Steps:4 KeyPress:True Matched:False	0	4	true	false	Wrong	false	n/a	n-backMarkers
938.927995	0.000000	4-back	4895.372556	Steps:4 KeyPress:False Matched:False	1	4	false	false	Correct	false	n/a	n-backMarkers
940.628489	0.000000	4-back	4897.073050	Steps:4 KeyPress:False Matched:False	1	4	false	false	Correct	false	n/a	n-backMarkers
941.725852	0.008000	dropped_samples	4898.170413	Dropped 2 samples	n/a	n/a	n/a	n/a	n/a	n/a	2	UoHDataOffsetStream
942.330255	0.000000	4-back	4898.774816	Steps:4 KeyPress:False Matched:True	0	4	false	true	Wrong	false	n/a	n-backMarkers
943.840083	0.012000	dropped_samples	4900.284644	Dropped 3 samples	n/a	n/a	n/a	n/a	n/a	n/a	3	UoHDataOffsetStream
944.031278	0.000000	4-back	4900.475838	Steps:4 KeyPress:False Matched:True	0	4	false	true	Wrong	false	n/a	n-backMarkers
945.731436	0.000000	4-back	4902.175997	Steps:4 KeyPress:False Matched:False	1	4	false	false	Correct	false	n/a	n-backMarkers
946.432560	0.000000	finished_n_back	4902.877121	Finished n-back	n/a	n/a	n/a	n/a	n/a	false	n/a	n-backMarkers
950.802952	0.004000	dropped_samples	4907.247512	Dropped 1 samples	n/a	n/a	n/a	n/a	n/a	n/a	1	UoHDataOffsetStream
957.975840	0.004000	dropped_samples	4914.420401	Dropped 1 samples	n/a	n/a	n/a	n/a	n/a	n/a	1	UoHDataOffsetStream
958.503177	0.012000	dropped_samples	4914.947738	Dropped 3 samples	n/a	n/a	n/a	n/a	n/a	n/a	3	UoHDataOffsetStream
